"","id","block","trial_number","safe_option","p","lumpSum","odds_ratio","frame_choice","response_choice","choice","reaction_time_choice","practice_trial","catch_trial","random_trial","time_elapsed"
"1",1,0,1,47,0.6,78,1,"gain_frame","j","risky",2494,1,0,0,116036
"2",1,0,2,-25,0.6,62,1,"loss_frame","j","risky",1879,1,0,0,122930
"3",1,1,1,39,0.6,64,1,"gain_frame","j","risky",1946,0,0,0,194717
"4",1,1,2,39,0.4,97,1,"gain_frame","f","safe",1488,0,0,0,201218
"5",1,1,3,-49,0.95,99,0.53,"loss_frame","j","risky",1528,0,1,0,207764
"6",1,1,4,-45,0.05,89,9.9,"loss_frame","f","safe",2343,0,1,0,215124
"7",1,1,5,-39,0.6,99,1,"loss_frame","j","risky",1177,0,0,0,221325
"8",1,1,6,67,0.8,83,1,"gain_frame","j","risky",727,0,0,0,227068
"9",1,1,7,-58,0.2,72,1,"loss_frame","f","safe",2210,0,0,0,234303
"10",1,1,8,-23,0.6,56,1,"loss_frame","j","risky",1265,0,0,0,240590
"11",1,1,9,13,0.2,67,1,"gain_frame","f","safe",1508,0,0,0,247119
"12",1,1,10,61,0.8,76,1,"gain_frame","j","risky",1525,0,0,0,253657
"13",1,1,11,39,0.4,98,1,"gain_frame","j","risky",1956,0,0,0,260633
"14",1,1,12,-14,0.8,71,1,"loss_frame","j","risky",832,0,0,0,266479
"15",1,1,13,33,0.6,55,1,"gain_frame","j","risky",712,0,0,0,272216
"16",1,1,14,-20,0.8,96,1,"loss_frame","j","risky",545,0,0,0,277776
"17",1,1,15,37,0.95,74,0.53,"gain_frame","j","risky",595,0,1,0,283391
"18",1,1,16,-46,0.2,58,1,"loss_frame","j","risky",2178,0,0,0,290592
"19",1,1,17,-74,0.2,92,1,"loss_frame","j","risky",1277,0,0,0,296885
"20",1,1,18,52,0.8,66,1,"gain_frame","j","risky",1323,0,0,0,303233
"21",1,1,19,-34,0.05,68,9.97,"loss_frame","f","safe",1457,0,1,0,309714
"22",1,1,20,32,0.4,79,1,"gain_frame","f","safe",1711,0,0,0,316445
"23",1,1,21,-48,0.95,97,0.53,"loss_frame","j","risky",570,0,1,0,322036
"24",1,1,22,48,0.95,96,0.52,"gain_frame","j","risky",606,0,1,0,327660
"25",1,1,23,47,0.6,79,1,"gain_frame","j","risky",700,0,0,0,333378
"26",1,1,24,-13,0.8,66,1,"loss_frame","j","risky",695,0,0,0,339094
"27",1,1,25,-58,0.4,96,1,"loss_frame","j","risky",1158,0,0,0,345266
"28",1,1,26,11,0.2,54,1,"gain_frame","f","safe",883,0,0,0,351167
"29",1,1,27,-41,0.05,82,9.99,"loss_frame","f","safe",1419,0,1,0,357608
"30",1,1,28,-18,0.8,89,1,"loss_frame","j","risky",1194,0,0,0,363819
"31",1,1,29,31,0.05,63,9.88,"gain_frame","f","safe",1072,0,1,0,369907
"32",1,1,30,43,0.05,85,10.09,"gain_frame","f","safe",992,0,1,0,375915
"33",1,1,31,24,0.4,60,1,"gain_frame","f","safe",1983,0,0,0,382918
"34",1,1,32,65,0.8,81,1,"gain_frame","j","risky",1136,0,0,0,389074
"35",1,1,33,-66,0.2,82,1,"loss_frame","f","safe",678,0,0,0,394769
"36",1,1,34,-49,0.2,61,1,"loss_frame","j","risky",1224,0,0,0,401008
"37",1,1,35,11,0.2,55,1,"gain_frame","f","safe",1233,0,0,0,407261
"38",1,1,36,-46,0.4,77,1,"loss_frame","j","risky",1207,0,0,0,413492
"39",1,1,37,43,0.6,72,1,"gain_frame","j","risky",530,0,0,0,419040
"40",1,1,38,37,0.6,62,1,"gain_frame","j","risky",549,0,0,0,424611
"41",1,1,39,-28,0.95,57,0.53,"loss_frame","j","risky",537,0,1,0,430160
"42",1,1,40,42,0.8,52,1,"gain_frame","j","risky",655,0,0,0,435839
"43",1,1,41,29,0.05,58,10.01,"gain_frame","f","safe",969,0,1,0,441828
"44",1,1,42,27,0.95,54,0.52,"gain_frame","j","risky",803,0,1,0,447652
"45",1,1,43,17,0.2,85,1,"gain_frame","f","safe",898,0,0,0,453577
"46",1,1,44,-25,0.6,63,1,"loss_frame","j","risky",820,0,0,1,459411
"47",1,1,45,19,0.2,96,1,"gain_frame","f","safe",1671,0,0,0,466107
"48",1,1,46,36,0.4,90,1,"gain_frame","f","safe",1409,0,0,0,472524
"49",1,1,47,-53,0.4,89,1,"loss_frame","j","risky",1188,0,0,0,478737
"50",1,1,48,-11,0.8,56,1,"loss_frame","j","risky",827,0,0,0,484581
"51",1,1,49,-22,0.6,56,1,"loss_frame","j","risky",693,0,0,0,490300
"52",1,1,50,-38,0.6,96,1,"loss_frame","j","risky",681,0,0,0,496006
"53",1,1,51,-51,0.4,85,1,"loss_frame","j","risky",1391,0,0,0,502409
"54",1,1,52,-39,0.4,65,1,"loss_frame","j","risky",1023,0,0,0,508454
"55",2,0,1,22,0.4,56,1,"gain_frame","f","safe",9221,1,0,0,124931
"56",2,0,2,-36,0.6,89,1,"loss_frame","j","risky",2306,1,0,0,132294
"57",2,1,1,-22,0.6,55,1,"loss_frame","j","risky",1355,0,0,0,156804
"58",2,1,2,50,0.95,99,0.53,"gain_frame","f","safe",671,0,1,0,162528
"59",2,1,3,-39,0.6,98,1,"loss_frame","j","risky",1119,0,0,0,168691
"60",2,1,4,-65,0.2,81,1,"loss_frame","f","safe",813,0,0,0,174556
"61",2,1,5,58,0.6,97,1,"gain_frame","j","risky",1346,0,0,0,180946
"62",2,1,6,-47,0.95,95,0.53,"loss_frame","j","risky",1558,0,1,0,187555
"63",2,1,7,16,0.2,81,1,"gain_frame","f","safe",1707,0,0,0,194336
"64",2,1,8,44,0.8,55,1,"gain_frame","j","risky",922,0,0,0,200318
"65",2,1,9,39,0.05,77,10.12,"gain_frame","f","safe",1264,0,1,0,206642
"66",2,1,10,-14,0.8,69,1,"loss_frame","j","risky",1293,0,0,0,212991
"67",2,1,11,24,0.4,60,1,"gain_frame","f","safe",1093,0,0,0,219146
"68",2,1,12,-34,0.4,57,1,"loss_frame","f","safe",1523,0,0,0,225728
"69",2,1,13,-20,0.8,99,1,"loss_frame","f","safe",1340,0,0,0,232113
"70",2,1,14,-31,0.4,52,1,"loss_frame","f","safe",2083,0,0,0,239254
"71",2,1,15,75,0.8,94,1,"gain_frame","j","risky",924,0,0,0,245231
"72",2,1,16,47,0.6,78,1,"gain_frame","f","safe",1582,0,0,0,251881
"73",2,1,17,-36,0.4,59,1,"loss_frame","j","risky",2237,0,0,0,259180
"74",2,1,18,-17,0.8,81,1,"loss_frame","j","risky",1153,0,0,0,265375
"75",2,1,19,-61,0.2,76,1,"loss_frame","j","risky",2213,0,0,0,272651
"76",2,1,20,41,0.6,69,1,"gain_frame","j","risky",2036,0,0,0,279741
"77",2,1,21,-29,0.95,58,0.53,"loss_frame","j","risky",812,0,1,0,285596
"78",2,1,22,-43,0.4,72,1,"loss_frame","f","safe",1543,0,0,0,292211
"79",2,1,23,-38,0.05,77,10.11,"loss_frame","f","safe",671,0,1,0,297944
"80",2,1,24,35,0.05,70,9.97,"gain_frame","f","safe",884,0,1,0,303885
"81",2,1,25,26,0.4,64,1,"gain_frame","j","risky",1239,0,0,0,310174
"82",2,1,26,50,0.6,83,1,"gain_frame","j","risky",859,0,0,0,316089
"83",2,1,27,10,0.2,50,1,"gain_frame","f","safe",1541,0,0,0,322688
"84",2,1,28,-38,0.6,96,1,"loss_frame","j","risky",1110,0,0,0,328836
"85",2,1,29,-28,0.05,55,9.88,"loss_frame","f","safe",1439,0,1,0,335324
"86",2,1,30,54,0.8,67,1,"gain_frame","j","risky",989,0,0,0,341366
"87",2,1,31,27,0.4,68,1,"gain_frame","f","safe",1376,0,0,0,347784
"88",2,1,32,-27,0.05,54,10.05,"loss_frame","f","safe",830,0,1,0,353674
"89",2,1,33,-29,0.6,71,1,"loss_frame","j","risky",1570,0,0,0,360295
"90",2,1,34,27,0.95,55,0.52,"gain_frame","j","risky",789,0,1,0,366127
"91",2,1,35,-58,0.2,73,1,"loss_frame","f","safe",1653,0,0,0,372815
"92",2,1,36,-58,0.4,96,1,"loss_frame","f","safe",1534,0,0,0,379396
"93",2,1,37,13,0.2,67,1,"gain_frame","j","risky",2127,0,0,0,386571
"94",2,1,38,14,0.2,68,1,"gain_frame","f","safe",2053,0,0,0,393679
"95",2,1,39,31,0.4,78,1,"gain_frame","f","safe",918,0,0,0,399655
"96",2,1,40,54,0.8,68,1,"gain_frame","f","safe",1529,0,0,0,406234
"97",2,1,41,39,0.6,65,1,"gain_frame","j","risky",1506,0,0,0,412781
"98",2,1,42,58,0.8,72,1,"gain_frame","f","safe",1300,0,0,1,419130
"99",2,1,43,-19,0.8,97,1,"loss_frame","f","safe",1786,0,0,0,425971
"100",2,1,44,44,0.95,89,0.52,"gain_frame","j","risky",886,0,1,0,431903
"101",2,1,45,30,0.05,59,10.12,"gain_frame","f","safe",913,0,1,0,437868
"102",2,1,46,-58,0.2,72,1,"loss_frame","j","risky",1849,0,0,0,444766
"103",2,1,47,-17,0.8,85,1,"loss_frame","f","safe",1039,0,0,0,450855
"104",2,1,48,19,0.2,97,1,"gain_frame","j","risky",1758,0,0,0,457663
"105",2,1,49,29,0.4,71,1,"gain_frame","f","safe",1375,0,0,0,464075
"106",2,1,50,-38,0.6,95,1,"loss_frame","j","risky",1423,0,0,0,470551
"107",2,1,51,-50,0.2,63,1,"loss_frame","f","safe",1420,0,0,0,477019
"108",2,1,52,-25,0.95,51,0.53,"loss_frame","j","risky",883,0,1,0,482958
"109",3,0,1,44,0.6,73,1,"gain_frame","j","risky",18807,1,0,0,81593
"110",3,0,2,-12,0.8,58,1,"loss_frame","j","risky",2492,1,0,0,89119
"111",3,1,1,-34,0.95,68,0.53,"loss_frame","j","risky",1007,0,1,0,115503
"112",3,1,2,-36,0.4,60,1,"loss_frame","f","safe",2926,0,0,0,123470
"113",3,1,3,46,0.8,58,1,"gain_frame","j","risky",871,0,0,0,129388
"114",3,1,4,-11,0.8,51,1,"loss_frame","j","risky",1513,0,0,0,135943
"115",3,1,5,49,0.05,98,10.03,"gain_frame","f","safe",1138,0,1,0,142130
"116",3,1,6,-66,0.2,82,1,"loss_frame","f","safe",2039,0,0,0,149207
"117",3,1,7,18,0.2,91,1,"gain_frame","f","safe",1586,0,0,0,155840
"118",3,1,8,-26,0.6,66,1,"loss_frame","j","risky",1463,0,0,0,162346
"119",3,1,9,72,0.8,90,1,"gain_frame","j","risky",1248,0,0,0,168637
"120",3,1,10,48,0.95,96,0.52,"gain_frame","j","risky",764,0,1,0,174462
"121",3,1,11,-55,0.4,92,1,"loss_frame","f","safe",2053,0,0,0,181560
"122",3,1,12,35,0.05,69,10.14,"gain_frame","f","safe",967,0,1,0,187578
"123",3,1,13,-43,0.2,54,1,"loss_frame","f","safe",2025,0,0,0,194655
"124",3,1,14,45,0.95,89,0.53,"gain_frame","j","risky",1240,0,1,0,200941
"125",3,1,15,-44,0.4,74,1,"loss_frame","j","risky",2079,0,0,0,208082
"126",3,1,16,47,0.6,78,1,"gain_frame","j","risky",1253,0,0,0,214402
"127",3,1,17,28,0.4,69,1,"gain_frame","f","safe",1993,0,0,0,221467
"128",3,1,18,51,0.6,84,1,"gain_frame","j","risky",737,0,0,0,227274
"129",3,1,19,57,0.6,96,1,"gain_frame","j","risky",776,0,0,0,233113
"130",3,1,20,-78,0.2,97,1,"loss_frame","f","safe",1453,0,0,0,239633
"131",3,1,21,-38,0.4,64,1,"loss_frame","f","safe",1978,0,0,0,246681
"132",3,1,22,-37,0.95,75,0.53,"loss_frame","j","risky",962,0,1,0,252711
"133",3,1,23,-68,0.2,85,1,"loss_frame","f","safe",2078,0,0,0,259851
"134",3,1,24,30,0.6,51,1,"gain_frame","j","risky",1254,0,0,0,266167
"135",3,1,25,26,0.4,65,1,"gain_frame","f","safe",1709,0,0,0,272932
"136",3,1,26,-42,0.05,85,10.09,"loss_frame","f","safe",1851,0,1,0,279855
"137",3,1,27,-44,0.4,73,1,"loss_frame","f","safe",1879,0,0,0,286792
"138",3,1,28,-15,0.8,76,1,"loss_frame","j","risky",798,0,0,0,292664
"139",3,1,29,11,0.2,57,1,"gain_frame","f","safe",1550,0,0,0,299275
"140",3,1,30,-20,0.6,51,1,"loss_frame","j","risky",824,0,0,0,305163
"141",3,1,31,-23,0.6,57,1,"loss_frame","j","risky",1837,0,0,0,312070
"142",3,1,32,19,0.2,93,1,"gain_frame","f","safe",2031,0,0,0,319162
"143",3,1,33,59,0.6,99,1,"gain_frame","j","risky",803,0,0,0,325031
"144",3,1,34,37,0.4,94,1,"gain_frame","f","safe",1790,0,0,0,331885
"145",3,1,35,-12,0.8,57,1,"loss_frame","j","risky",850,0,0,0,337799
"146",3,1,36,16,0.2,82,1,"gain_frame","f","safe",1358,0,0,0,344224
"147",3,1,37,51,0.8,63,1,"gain_frame","j","risky",1179,0,0,0,350448
"148",3,1,38,45,0.8,56,1,"gain_frame","j","risky",2038,0,0,0,357549
"149",3,1,39,31,0.05,63,9.85,"gain_frame","f","safe",1106,0,1,0,363724
"150",3,1,40,45,0.8,56,1,"gain_frame","j","risky",1563,0,0,0,370348
"151",3,1,41,-14,0.8,72,1,"loss_frame","j","risky",835,0,0,0,376250
"152",3,1,42,44,0.95,88,0.53,"gain_frame","j","risky",580,0,1,0,381898
"153",3,1,43,-20,0.8,99,1,"loss_frame","j","risky",917,0,0,0,387879
"154",3,1,44,-47,0.05,94,10.02,"loss_frame","f","safe",1081,0,1,0,394028
"155",3,1,45,15,0.2,77,1,"gain_frame","f","safe",1548,0,0,0,400638
"156",3,1,46,29,0.4,72,1,"gain_frame","f","safe",1599,0,0,0,407294
"157",3,1,47,-31,0.6,77,1,"loss_frame","j","risky",1083,0,0,1,413444
"158",3,1,48,-46,0.2,58,1,"loss_frame","f","safe",1433,0,0,0,419935
"159",3,1,49,-31,0.6,78,1,"loss_frame","j","risky",808,0,0,0,425808
"160",3,1,50,-34,0.95,68,0.52,"loss_frame","j","risky",1073,0,1,0,431952
"161",3,1,51,34,0.4,86,1,"gain_frame","f","safe",1560,0,0,0,438578
"162",3,1,52,-49,0.05,97,9.91,"loss_frame","f","safe",1020,0,1,0,444660
"163",4,0,1,32,0.4,80,1,"gain_frame","j","risky",1408,1,0,0,57700
"164",4,0,2,-41,0.4,68,1,"loss_frame","f","safe",1305,1,0,0,64060
"165",4,1,1,43,0.05,86,9.96,"gain_frame","f","safe",881,0,1,0,860082
"166",4,1,2,18,0.2,90,1,"gain_frame","f","safe",777,0,0,0,865923
"167",4,1,3,34,0.4,86,1,"gain_frame","j","risky",568,0,0,0,871561
"168",4,1,4,-15,0.8,76,1,"loss_frame","j","risky",574,0,0,0,877191
"169",4,1,5,57,0.6,96,1,"gain_frame","j","risky",1074,0,0,0,883320
"170",4,1,6,34,0.4,86,1,"gain_frame","f","safe",1173,0,0,0,889550
"171",4,1,7,-46,0.2,58,1,"loss_frame","f","safe",1123,0,0,0,895751
"172",4,1,8,-19,0.8,97,1,"loss_frame","f","safe",1582,0,0,0,902392
"173",4,1,9,-20,0.6,50,1,"loss_frame","j","risky",963,0,0,0,908409
"174",4,1,10,49,0.8,61,1,"gain_frame","j","risky",1078,0,0,0,914552
"175",4,1,11,80,0.8,100,1,"gain_frame","j","risky",1201,0,0,0,920825
"176",4,1,12,-23,0.6,56,1,"loss_frame","j","risky",722,0,0,0,926603
"177",4,1,13,-10,0.8,51,1,"loss_frame","f","safe",861,0,0,0,932527
"178",4,1,14,-44,0.05,89,10.09,"loss_frame","f","safe",1545,0,1,0,939133
"179",4,1,15,-38,0.05,77,10.07,"loss_frame","f","safe",1298,0,1,0,945503
"180",4,1,16,-41,0.2,51,1,"loss_frame","f","safe",1135,0,0,0,951713
"181",4,1,17,19,0.2,96,1,"gain_frame","j","risky",1082,0,0,0,957843
"182",4,1,18,34,0.95,69,0.52,"gain_frame","j","risky",882,0,1,0,963792
"183",4,1,19,49,0.6,81,1,"gain_frame","j","risky",558,0,0,0,969419
"184",4,1,20,-53,0.2,66,1,"loss_frame","f","safe",1115,0,0,0,975602
"185",4,1,21,-50,0.4,83,1,"loss_frame","j","risky",873,0,0,0,981528
"186",4,1,22,-42,0.2,52,1,"loss_frame","j","risky",953,0,0,0,987544
"187",4,1,23,-40,0.95,80,0.52,"loss_frame","j","risky",615,0,1,0,993228
"188",4,1,24,47,0.8,59,1,"gain_frame","j","risky",859,0,0,0,999145
"189",4,1,25,36,0.95,71,0.53,"gain_frame","j","risky",904,0,1,0,1005088
"190",4,1,26,-30,0.4,51,1,"loss_frame","f","safe",912,0,0,0,1011059
"191",4,1,27,-38,0.05,77,10.09,"loss_frame","f","safe",603,0,1,0,1016731
"192",4,1,28,-31,0.6,77,1,"loss_frame","j","risky",655,0,0,0,1022414
"193",4,1,29,-53,0.4,88,1,"loss_frame","f","safe",744,0,0,0,1028213
"194",4,1,30,-78,0.2,97,1,"loss_frame","j","risky",954,0,0,0,1034237
"195",4,1,31,35,0.4,88,1,"gain_frame","j","risky",755,0,0,0,1040062
"196",4,1,32,-49,0.4,82,1,"loss_frame","j","risky",851,0,0,0,1045991
"197",4,1,33,70,0.8,87,1,"gain_frame","j","risky",810,0,0,0,1051860
"198",4,1,34,40,0.95,79,0.53,"gain_frame","j","risky",609,0,1,0,1057519
"199",4,1,35,30,0.05,59,10.16,"gain_frame","f","safe",1021,0,1,0,1063603
"200",4,1,36,52,0.6,87,1,"gain_frame","j","risky",733,0,0,0,1069385
"201",4,1,37,-11,0.8,56,1,"loss_frame","j","risky",937,0,0,0,1076243
"202",4,1,38,22,0.4,54,1,"gain_frame","no_choice","no_choice",-1,0,0,0,1089245
"203",4,1,39,16,0.2,81,1,"gain_frame","no_choice","no_choice",-1,0,0,0,1102255
"204",4,1,40,-34,0.6,84,1,"loss_frame","no_choice","no_choice",-1,0,0,0,1115249
"205",4,1,41,-29,0.6,73,1,"loss_frame","no_choice","no_choice",-1,0,0,1,1128256
"206",4,1,42,57,0.6,95,1,"gain_frame","no_choice","no_choice",-1,0,0,0,1141257
"207",4,1,43,-27,0.95,54,0.53,"loss_frame","j","risky",1634,0,1,0,1150644
"208",4,1,44,11,0.2,54,1,"gain_frame","j","risky",884,0,0,0,1156600
"209",4,1,45,-40,0.4,66,1,"loss_frame","f","safe",979,0,0,0,1162635
"210",4,1,46,10,0.2,52,1,"gain_frame","j","risky",794,0,0,0,1168496
"211",4,1,47,-30,0.95,60,0.52,"loss_frame","j","risky",885,0,1,0,1174446
"212",4,1,48,35,0.6,59,1,"gain_frame","j","risky",839,0,0,0,1180330
"213",4,1,49,38,0.4,96,1,"gain_frame","f","safe",1116,0,0,0,1186503
"214",4,1,50,-15,0.8,72,1,"loss_frame","j","risky",666,0,0,0,1192227
"215",4,1,51,73,0.8,92,1,"gain_frame","j","risky",622,0,0,0,1197922
"216",4,1,52,40,0.05,79,10.08,"gain_frame","f","safe",948,0,1,0,1203932
"217",5,0,1,32,0.4,80,1,"gain_frame","j","risky",2919,1,0,0,92393
"218",5,0,2,-31,0.4,51,1,"loss_frame","j","risky",3938,1,0,0,101392
"219",5,1,1,-49,0.05,98,10.02,"loss_frame","f","safe",2856,0,1,0,138057
"220",5,1,2,-41,0.4,68,1,"loss_frame","j","risky",1401,0,0,0,144506
"221",5,1,3,48,0.6,80,1,"gain_frame","j","risky",1239,0,0,0,150801
"222",5,1,4,-43,0.4,71,1,"loss_frame","j","risky",2135,0,0,0,157996
"223",5,1,5,19,0.2,95,1,"gain_frame","j","risky",2641,0,0,0,165686
"224",5,1,6,-31,0.4,52,1,"loss_frame","j","risky",1976,0,0,0,172712
"225",5,1,7,12,0.2,62,1,"gain_frame","j","risky",1199,0,0,0,178973
"226",5,1,8,-12,0.8,58,1,"loss_frame","j","risky",2072,0,0,0,186119
"227",5,1,9,28,0.95,56,0.53,"gain_frame","j","risky",1783,0,1,0,192959
"228",5,1,10,-46,0.2,58,1,"loss_frame","j","risky",2449,0,0,0,200453
"229",5,1,11,-37,0.4,61,1,"loss_frame","j","risky",1965,0,0,0,207491
"230",5,1,12,46,0.6,76,1,"gain_frame","j","risky",1611,0,0,0,214148
"231",5,1,13,18,0.2,90,1,"gain_frame","j","risky",1444,0,0,1,220673
"232",5,1,14,31,0.4,78,1,"gain_frame","j","risky",2361,0,0,0,228078
"233",5,1,15,55,0.8,69,1,"gain_frame","j","risky",1224,0,0,0,234332
"234",5,1,16,80,0.8,100,1,"gain_frame","f","safe",1774,0,0,0,241182
"235",5,1,17,-66,0.2,83,1,"loss_frame","j","risky",1417,0,0,0,247635
"236",5,1,18,-49,0.05,98,9.98,"loss_frame","f","safe",2238,0,1,0,254938
"237",5,1,19,40,0.6,67,1,"gain_frame","j","risky",2301,0,0,0,262298
"238",5,1,20,23,0.4,57,1,"gain_frame","j","risky",2255,0,0,0,269593
"239",5,1,21,-14,0.8,68,1,"loss_frame","j","risky",2026,0,0,0,276699
"240",5,1,22,50,0.6,84,1,"gain_frame","f","safe",2299,0,0,0,284055
"241",5,1,23,63,0.8,79,1,"gain_frame","f","safe",1036,0,0,0,290158
"242",5,1,24,71,0.8,89,1,"gain_frame","f","safe",916,0,0,0,296134
"243",5,1,25,-51,0.2,64,1,"loss_frame","j","risky",1253,0,0,0,302427
"244",5,1,26,-41,0.95,83,0.53,"loss_frame","j","risky",1321,0,1,0,308813
"245",5,1,27,-16,0.8,82,1,"loss_frame","j","risky",1678,0,0,0,315566
"246",5,1,28,15,0.2,77,1,"gain_frame","j","risky",2508,0,0,0,323156
"247",5,1,29,-30,0.95,60,0.52,"loss_frame","j","risky",1517,0,1,0,329728
"248",5,1,30,34,0.4,86,1,"gain_frame","j","risky",3243,0,0,0,338028
"249",5,1,31,-39,0.6,98,1,"loss_frame","f","safe",3142,0,0,0,346216
"250",5,1,32,18,0.2,91,1,"gain_frame","j","risky",1589,0,0,0,352858
"251",5,1,33,31,0.6,52,1,"gain_frame","j","risky",1756,0,0,0,359672
"252",5,1,34,-16,0.8,76,1,"loss_frame","j","risky",1399,0,0,0,366141
"253",5,1,35,-36,0.6,89,1,"loss_frame","j","risky",1614,0,0,0,372814
"254",5,1,36,-22,0.6,54,1,"loss_frame","j","risky",1816,0,0,0,379683
"255",5,1,37,-32,0.6,80,1,"loss_frame","j","risky",1247,0,0,0,385993
"256",5,1,38,-45,0.05,89,9.94,"loss_frame","f","safe",2844,0,1,0,393917
"257",5,1,39,-19,0.8,93,1,"loss_frame","j","risky",1169,0,0,0,400139
"258",5,1,40,43,0.95,86,0.53,"gain_frame","j","risky",1278,0,1,0,406472
"259",5,1,41,-32,0.95,64,0.52,"loss_frame","j","risky",1076,0,1,0,412620
"260",5,1,42,-29,0.6,73,1,"loss_frame","j","risky",1350,0,0,0,419031
"261",5,1,43,35,0.05,69,10.14,"gain_frame","f","safe",1649,0,1,0,425736
"262",5,1,44,48,0.95,96,0.52,"gain_frame","j","risky",1366,0,1,0,432157
"263",5,1,45,-78,0.2,97,1,"loss_frame","j","risky",1897,0,0,0,439115
"264",5,1,46,60,0.8,75,1,"gain_frame","j","risky",3614,0,0,0,447774
"265",5,1,47,-36,0.4,60,1,"loss_frame","j","risky",3194,0,0,0,456035
"266",5,1,48,20,0.4,50,1,"gain_frame","j","risky",1008,0,0,0,462096
"267",5,1,49,34,0.05,68,10,"gain_frame","f","safe",1585,0,1,0,468740
"268",5,1,50,-51,0.2,64,1,"loss_frame","j","risky",1875,0,0,0,475668
"269",5,1,51,36,0.05,72,10.07,"gain_frame","f","safe",1320,0,1,0,482047
"270",5,1,52,26,0.4,64,1,"gain_frame","j","risky",2604,0,0,0,489686
"271",6,0,1,55,0.6,92,1,"gain_frame","j","risky",2470,1,0,0,563924
"272",6,0,2,-33,0.4,55,1,"loss_frame","f","safe",4754,1,0,0,573686
"273",6,1,1,27,0.95,54,0.52,"gain_frame","j","risky",1303,0,1,0,602538
"274",6,1,2,18,0.2,89,1,"gain_frame","f","safe",3420,0,0,0,610970
"275",6,1,3,41,0.6,68,1,"gain_frame","j","risky",2146,0,0,0,618126
"276",6,1,4,28,0.4,71,1,"gain_frame","f","safe",1958,0,0,0,625092
"277",6,1,5,-27,0.6,66,1,"loss_frame","j","risky",2835,0,0,0,632934
"278",6,1,6,-58,0.4,97,1,"loss_frame","f","safe",711,0,0,0,638655
"279",6,1,7,-43,0.2,54,1,"loss_frame","f","safe",677,0,0,0,644341
"280",6,1,8,17,0.2,85,1,"gain_frame","f","safe",1019,0,0,0,650369
"281",6,1,9,38,0.4,94,1,"gain_frame","f","safe",2693,0,0,0,658073
"282",6,1,10,14,0.2,69,1,"gain_frame","j","risky",2229,0,0,0,665312
"283",6,1,11,14,0.2,72,1,"gain_frame","f","safe",1399,0,0,0,671720
"284",6,1,12,-47,0.4,78,1,"loss_frame","f","safe",3168,0,0,0,679898
"285",6,1,13,-42,0.2,52,1,"loss_frame","f","safe",3125,0,0,0,688032
"286",6,1,14,47,0.05,94,9.98,"gain_frame","f","safe",1276,0,1,0,694319
"287",6,1,15,-33,0.95,65,0.52,"loss_frame","j","risky",857,0,1,0,700186
"288",6,1,16,-69,0.2,86,1,"loss_frame","f","safe",923,0,0,0,706117
"289",6,1,17,28,0.4,70,1,"gain_frame","f","safe",977,0,0,0,712104
"290",6,1,18,-33,0.6,82,1,"loss_frame","f","safe",1242,0,0,0,718355
"291",6,1,19,-34,0.6,84,1,"loss_frame","j","risky",979,0,0,0,724342
"292",6,1,20,30,0.6,50,1,"gain_frame","j","risky",807,0,0,0,730156
"293",6,1,21,39,0.05,78,9.99,"gain_frame","f","safe",584,0,1,0,735749
"294",6,1,22,-44,0.95,88,0.53,"loss_frame","j","risky",644,0,1,0,741399
"295",6,1,23,-32,0.05,65,10.11,"loss_frame","f","safe",537,0,1,0,746951
"296",6,1,24,-43,0.4,72,1,"loss_frame","f","safe",980,0,0,0,752939
"297",6,1,25,56,0.8,69,1,"gain_frame","j","risky",643,0,0,0,758588
"298",6,1,26,-26,0.95,51,0.52,"loss_frame","j","risky",589,0,1,0,764187
"299",6,1,27,67,0.8,84,1,"gain_frame","j","risky",1021,0,0,0,770215
"300",6,1,28,-19,0.8,97,1,"loss_frame","j","risky",850,0,0,0,776073
"301",6,1,29,-45,0.4,75,1,"loss_frame","f","safe",625,0,0,0,781707
"302",6,1,30,58,0.6,97,1,"gain_frame","j","risky",1411,0,0,0,788128
"303",6,1,31,10,0.2,51,1,"gain_frame","f","safe",1443,0,0,0,794580
"304",6,1,32,80,0.8,100,1,"gain_frame","j","risky",728,0,0,0,800315
"305",6,1,33,35,0.4,88,1,"gain_frame","f","safe",841,0,0,0,806165
"306",6,1,34,-22,0.6,54,1,"loss_frame","j","risky",841,0,0,0,812027
"307",6,1,35,-56,0.4,93,1,"loss_frame","f","safe",756,0,0,0,817792
"308",6,1,36,-19,0.8,99,1,"loss_frame","j","risky",724,0,0,0,823525
"309",6,1,37,48,0.6,79,1,"gain_frame","j","risky",808,0,0,1,829343
"310",6,1,38,-16,0.8,79,1,"loss_frame","j","risky",1325,0,0,0,835677
"311",6,1,39,-15,0.8,73,1,"loss_frame","j","risky",1280,0,0,0,841965
"312",6,1,40,41,0.05,82,10.04,"gain_frame","f","safe",1231,0,1,0,848205
"313",6,1,41,26,0.95,51,0.53,"gain_frame","j","risky",1031,0,1,0,854244
"314",6,1,42,-50,0.2,63,1,"loss_frame","f","safe",1105,0,0,0,860355
"315",6,1,43,-18,0.8,88,1,"loss_frame","j","risky",1119,0,0,0,866482
"316",6,1,44,-47,0.05,94,9.99,"loss_frame","f","safe",1319,0,1,0,872810
"317",6,1,45,47,0.6,79,1,"gain_frame","j","risky",1247,0,0,0,879067
"318",6,1,46,28,0.4,70,1,"gain_frame","f","safe",1449,0,0,0,885522
"319",6,1,47,69,0.8,86,1,"gain_frame","j","risky",1032,0,0,0,891562
"320",6,1,48,-58,0.2,73,1,"loss_frame","f","safe",1493,0,0,0,898062
"321",6,1,49,46,0.8,57,1,"gain_frame","j","risky",1121,0,0,0,904190
"322",6,1,50,-28,0.6,69,1,"loss_frame","j","risky",1196,0,0,0,910396
"323",6,1,51,42,0.95,84,0.53,"gain_frame","j","risky",939,0,1,0,916344
"324",6,1,52,-33,0.05,67,10.12,"loss_frame","f","safe",1236,0,1,0,922587
"325",7,0,1,63,0.8,79,1,"gain_frame","f","safe",2459,1,0,0,198555
"326",7,0,2,-27,0.6,66,1,"loss_frame","j","risky",1854,1,0,0,205497
"327",7,1,1,12,0.2,62,1,"gain_frame","j","risky",1058,0,0,0,233604
"328",7,1,2,11,0.2,57,1,"gain_frame","f","safe",1519,0,0,0,240203
"329",7,1,3,-13,0.8,64,1,"loss_frame","j","risky",979,0,0,0,246273
"330",7,1,4,-43,0.4,71,1,"loss_frame","f","safe",1455,0,0,0,252798
"331",7,1,5,-37,0.4,61,1,"loss_frame","j","risky",1352,0,0,0,259214
"332",7,1,6,-59,0.4,98,1,"loss_frame","j","risky",1469,0,0,0,265773
"333",7,1,7,50,0.6,84,1,"gain_frame","f","safe",1858,0,0,0,272703
"334",7,1,8,-11,0.8,53,1,"loss_frame","j","risky",1536,0,0,0,279301
"335",7,1,9,59,0.8,74,1,"gain_frame","f","safe",1177,0,0,0,285562
"336",7,1,10,25,0.05,51,9.89,"gain_frame","f","safe",1588,0,1,0,292241
"337",7,1,11,12,0.2,58,1,"gain_frame","f","safe",1419,0,0,0,298736
"338",7,1,12,-11,0.8,56,1,"loss_frame","j","risky",934,0,0,0,304737
"339",7,1,13,-39,0.6,97,1,"loss_frame","j","risky",1688,0,0,0,311510
"340",7,1,14,-46,0.95,91,0.52,"loss_frame","j","risky",851,0,1,0,317450
"341",7,1,15,60,0.6,100,1,"gain_frame","j","risky",652,0,0,0,323187
"342",7,1,16,-22,0.6,55,1,"loss_frame","j","risky",1146,0,0,0,329410
"343",7,1,17,38,0.95,76,0.52,"gain_frame","j","risky",727,0,1,0,335213
"344",7,1,18,38,0.05,76,10.01,"gain_frame","f","safe",758,0,1,0,341031
"345",7,1,19,44,0.6,73,1,"gain_frame","f","safe",1539,0,0,1,347641
"346",7,1,20,42,0.8,52,1,"gain_frame","j","risky",716,0,0,0,353442
"347",7,1,21,-19,0.8,93,1,"loss_frame","j","risky",930,0,0,0,359424
"348",7,1,22,31,0.6,52,1,"gain_frame","f","safe",1787,0,0,0,366300
"349",7,1,23,-47,0.2,59,1,"loss_frame","f","safe",1008,0,0,0,372373
"350",7,1,24,11,0.2,56,1,"gain_frame","f","safe",2159,0,0,0,379614
"351",7,1,25,-18,0.8,86,1,"loss_frame","j","risky",2382,0,0,0,387066
"352",7,1,26,-60,0.2,75,1,"loss_frame","j","risky",3059,0,0,0,395188
"353",7,1,27,12,0.2,59,1,"gain_frame","f","safe",3347,0,0,0,403620
"354",7,1,28,31,0.6,52,1,"gain_frame","f","safe",931,0,0,0,409632
"355",7,1,29,-31,0.6,77,1,"loss_frame","j","risky",2251,0,0,0,416964
"356",7,1,30,76,0.8,95,1,"gain_frame","f","safe",940,0,0,0,422971
"357",7,1,31,-29,0.05,59,10.11,"loss_frame","j","risky",957,0,1,0,428986
"358",7,1,32,26,0.95,51,0.53,"gain_frame","j","risky",1500,0,1,0,435571
"359",7,1,33,-25,0.6,61,1,"loss_frame","j","risky",1454,0,0,0,442109
"360",7,1,34,37,0.4,94,1,"gain_frame","f","safe",1753,0,0,0,448939
"361",7,1,35,25,0.4,62,1,"gain_frame","f","safe",1444,0,0,0,455441
"362",7,1,36,40,0.8,51,1,"gain_frame","f","safe",1123,0,0,0,461648
"363",7,1,37,-55,0.4,91,1,"loss_frame","j","risky",1285,0,0,0,468002
"364",7,1,38,35,0.4,87,1,"gain_frame","f","safe",1692,0,0,0,474774
"365",7,1,39,33,0.4,83,1,"gain_frame","f","safe",973,0,0,0,480820
"366",7,1,40,31,0.4,78,1,"gain_frame","f","safe",1551,0,0,0,487446
"367",7,1,41,-38,0.6,94,1,"loss_frame","j","risky",1232,0,0,0,493758
"368",7,1,42,-58,0.2,72,1,"loss_frame","f","safe",1737,0,0,0,500575
"369",7,1,43,-33,0.05,66,9.93,"loss_frame","f","safe",2636,0,1,0,508283
"370",7,1,44,-31,0.95,61,0.52,"loss_frame","j","risky",1434,0,1,0,514799
"371",7,1,45,27,0.95,55,0.52,"gain_frame","j","risky",1215,0,1,0,521095
"372",7,1,46,-41,0.4,68,1,"loss_frame","j","risky",3225,0,0,0,529400
"373",7,1,47,-28,0.95,56,0.53,"loss_frame","j","risky",969,0,1,0,535430
"374",7,1,48,-33,0.05,66,10.02,"loss_frame","f","safe",2583,0,1,0,543103
"375",7,1,49,61,0.8,76,1,"gain_frame","f","safe",1741,0,0,0,549926
"376",7,1,50,-46,0.2,58,1,"loss_frame","no_choice","no_choice",-1,0,0,0,559020
"377",7,1,51,-50,0.2,62,1,"loss_frame","f","safe",1018,0,0,0,565115
"378",7,1,52,27,0.05,54,10.05,"gain_frame","f","safe",876,0,1,0,571074
"379",8,0,1,24,0.4,61,1,"gain_frame","f","safe",1677,1,0,0,64088
"380",8,0,2,-60,0.4,99,1,"loss_frame","f","safe",638,1,0,0,69778
"381",8,1,1,39,0.4,97,1,"gain_frame","f","safe",2338,0,0,0,96094
"382",8,1,2,-48,0.05,97,10.1,"loss_frame","f","safe",2631,0,1,0,103762
"383",8,1,3,19,0.2,94,1,"gain_frame","f","safe",1483,0,0,0,110281
"384",8,1,4,59,0.6,99,1,"gain_frame","j","risky",2457,0,0,0,117787
"385",8,1,5,-35,0.6,89,1,"loss_frame","j","risky",1671,0,0,0,124492
"386",8,1,6,-28,0.6,71,1,"loss_frame","j","risky",1287,0,0,0,130802
"387",8,1,7,49,0.6,82,1,"gain_frame","j","risky",1101,0,0,0,136965
"388",8,1,8,-30,0.05,59,9.88,"loss_frame","f","safe",625,0,1,0,142628
"389",8,1,9,-72,0.2,90,1,"loss_frame","f","safe",617,0,0,0,148281
"390",8,1,10,-42,0.4,69,1,"loss_frame","f","safe",640,0,0,1,153965
"391",8,1,11,-16,0.8,79,1,"loss_frame","j","risky",972,0,0,0,159965
"392",8,1,12,45,0.6,74,1,"gain_frame","j","risky",2534,0,0,0,167546
"393",8,1,13,19,0.2,95,1,"gain_frame","f","safe",1010,0,0,0,173604
"394",8,1,14,61,0.8,77,1,"gain_frame","j","risky",1357,0,0,0,180015
"395",8,1,15,-53,0.2,66,1,"loss_frame","j","risky",2813,0,0,0,187868
"396",8,1,16,44,0.05,88,9.96,"gain_frame","f","safe",788,0,1,0,193723
"397",8,1,17,-25,0.6,64,1,"loss_frame","j","risky",2365,0,0,0,201145
"398",8,1,18,54,0.6,90,1,"gain_frame","j","risky",2162,0,0,0,208360
"399",8,1,19,-78,0.2,98,1,"loss_frame","j","risky",2702,0,0,0,216108
"400",8,1,20,-39,0.6,98,1,"loss_frame","j","risky",2625,0,0,0,223773
"401",8,1,21,11,0.2,57,1,"gain_frame","f","safe",663,0,0,0,229505
"402",8,1,22,-51,0.4,85,1,"loss_frame","f","safe",3158,0,0,0,237703
"403",8,1,23,61,0.8,77,1,"gain_frame","j","risky",2627,0,0,0,245399
"404",8,1,24,-45,0.4,76,1,"loss_frame","no_choice","no_choice",-1,0,0,0,254461
"405",8,1,25,62,0.8,77,1,"gain_frame","j","risky",1010,0,0,0,260513
"406",8,1,26,32,0.4,81,1,"gain_frame","f","safe",1468,0,0,0,267026
"407",8,1,27,-51,0.2,64,1,"loss_frame","j","risky",1572,0,0,0,273650
"408",8,1,28,39,0.4,98,1,"gain_frame","f","safe",1421,0,0,0,280118
"409",8,1,29,-35,0.4,58,1,"loss_frame","f","safe",1782,0,0,0,286986
"410",8,1,30,38,0.6,63,1,"gain_frame","j","risky",620,0,0,0,292645
"411",8,1,31,-16,0.8,79,1,"loss_frame","j","risky",649,0,0,0,298345
"412",8,1,32,-20,0.8,99,1,"loss_frame","j","risky",662,0,0,0,304049
"413",8,1,33,-42,0.95,84,0.53,"loss_frame","j","risky",658,0,1,0,309743
"414",8,1,34,-14,0.8,72,1,"loss_frame","j","risky",1053,0,0,0,315847
"415",8,1,35,31,0.4,78,1,"gain_frame","f","safe",959,0,0,0,321843
"416",8,1,36,-47,0.05,94,10.03,"loss_frame","f","safe",1330,0,1,0,328213
"417",8,1,37,-36,0.6,91,1,"loss_frame","j","risky",1760,0,0,0,335034
"418",8,1,38,-35,0.95,69,0.52,"loss_frame","j","risky",995,0,1,0,341069
"419",8,1,39,30,0.95,59,0.53,"gain_frame","j","risky",563,0,1,0,346679
"420",8,1,40,55,0.8,69,1,"gain_frame","f","safe",1293,0,0,0,353021
"421",8,1,41,-14,0.8,68,1,"loss_frame","f","safe",1369,0,0,0,359411
"422",8,1,42,43,0.8,54,1,"gain_frame","f","safe",1035,0,0,0,365482
"423",8,1,43,37,0.95,74,0.52,"gain_frame","j","risky",860,0,1,0,371391
"424",8,1,44,-30,0.95,59,0.52,"loss_frame","j","risky",665,0,1,0,377101
"425",8,1,45,30,0.95,59,0.53,"gain_frame","j","risky",386,0,1,0,382539
"426",8,1,46,13,0.2,67,1,"gain_frame","f","safe",1807,0,0,0,389398
"427",8,1,47,-54,0.2,67,1,"loss_frame","j","risky",2142,0,0,0,396601
"428",8,1,48,-47,0.4,79,1,"loss_frame","j","risky",1460,0,0,0,403109
"429",8,1,49,30,0.05,61,9.89,"gain_frame","f","safe",1200,0,1,0,409346
"430",8,1,50,50,0.05,99,10.08,"gain_frame","f","safe",1090,0,1,0,415478
"431",8,1,51,13,0.2,67,1,"gain_frame","f","safe",2114,0,0,0,422641
"432",8,1,52,32,0.4,80,1,"gain_frame","f","safe",1419,0,0,0,429108
"433",9,0,1,35,0.4,88,1,"gain_frame","f","safe",7835,1,0,0,434090
"434",9,0,2,-18,0.8,88,1,"loss_frame","j","risky",6014,1,0,0,445099
"435",9,1,1,48,0.05,96,10.03,"gain_frame","f","safe",1813,0,1,0,478302
"436",9,1,2,-55,0.2,69,1,"loss_frame","f","safe",2397,0,0,1,485707
"437",9,1,3,-34,0.05,67,9.85,"loss_frame","f","safe",2632,0,1,0,493347
"438",9,1,4,18,0.2,89,1,"gain_frame","f","safe",2867,0,0,0,501228
"439",9,1,5,26,0.95,52,0.53,"gain_frame","j","risky",2319,0,1,0,508528
"440",9,1,6,39,0.4,97,1,"gain_frame","f","safe",2536,0,0,0,516072
"441",9,1,7,40,0.6,67,1,"gain_frame","f","safe",1846,0,0,0,522929
"442",9,1,8,77,0.8,96,1,"gain_frame","f","safe",2718,0,0,0,530657
"443",9,1,9,46,0.8,58,1,"gain_frame","f","safe",1735,0,0,0,537400
"444",9,1,10,-15,0.8,75,1,"loss_frame","f","safe",1713,0,0,0,544121
"445",9,1,11,36,0.4,91,1,"gain_frame","f","safe",2720,0,0,0,551848
"446",9,1,12,-52,0.4,86,1,"loss_frame","f","safe",2049,0,0,0,558904
"447",9,1,13,-35,0.6,88,1,"loss_frame","f","safe",1398,0,0,0,565301
"448",9,1,14,-60,0.2,75,1,"loss_frame","f","safe",1873,0,0,0,572182
"449",9,1,15,-29,0.05,58,10,"loss_frame","f","safe",1632,0,1,0,578821
"450",9,1,16,18,0.2,88,1,"gain_frame","f","safe",2241,0,0,0,586070
"451",9,1,17,-37,0.4,62,1,"loss_frame","f","safe",1456,0,0,0,592533
"452",9,1,18,45,0.8,57,1,"gain_frame","f","safe",1639,0,0,0,599180
"453",9,1,19,29,0.05,59,9.84,"gain_frame","f","safe",1033,0,1,0,605221
"454",9,1,20,-27,0.95,54,0.53,"loss_frame","f","safe",1681,0,1,0,611909
"455",9,1,21,-39,0.4,65,1,"loss_frame","f","safe",1176,0,0,0,618093
"456",9,1,22,13,0.2,67,1,"gain_frame","f","safe",1969,0,0,0,625069
"457",9,1,23,-35,0.95,71,0.53,"loss_frame","j","risky",2312,0,1,0,632381
"458",9,1,24,38,0.4,96,1,"gain_frame","f","safe",1905,0,0,0,639293
"459",9,1,25,55,0.6,92,1,"gain_frame","f","safe",1727,0,0,0,646028
"460",9,1,26,22,0.4,54,1,"gain_frame","f","safe",1632,0,0,0,652668
"461",9,1,27,15,0.2,73,1,"gain_frame","f","safe",1881,0,0,0,659556
"462",9,1,28,-71,0.2,89,1,"loss_frame","f","safe",1599,0,0,0,666165
"463",9,1,29,40,0.8,50,1,"gain_frame","f","safe",2376,0,0,0,673548
"464",9,1,30,-32,0.4,53,1,"loss_frame","f","safe",2489,0,0,0,681044
"465",9,1,31,-60,0.2,75,1,"loss_frame","f","safe",1840,0,0,0,687885
"466",9,1,32,31,0.6,52,1,"gain_frame","f","safe",1336,0,0,0,694229
"467",9,1,33,-15,0.8,78,1,"loss_frame","f","safe",1775,0,0,0,701012
"468",9,1,34,-37,0.6,91,1,"loss_frame","f","safe",1937,0,0,0,707956
"469",9,1,35,-27,0.95,53,0.52,"loss_frame","j","risky",2065,0,1,0,715029
"470",9,1,36,-22,0.6,56,1,"loss_frame","f","safe",1265,0,0,0,721302
"471",9,1,37,-14,0.8,71,1,"loss_frame","f","safe",1479,0,0,0,727788
"472",9,1,38,-16,0.8,78,1,"loss_frame","f","safe",2153,0,0,0,734949
"473",9,1,39,39,0.4,97,1,"gain_frame","f","safe",2111,0,0,0,742068
"474",9,1,40,-32,0.05,63,9.85,"loss_frame","f","safe",2065,0,1,0,749132
"475",9,1,41,36,0.6,60,1,"gain_frame","f","safe",2184,0,0,0,756324
"476",9,1,42,40,0.95,79,0.53,"gain_frame","j","risky",2209,0,1,0,763540
"477",9,1,43,-22,0.6,54,1,"loss_frame","f","safe",1288,0,0,0,769835
"478",9,1,44,40,0.05,81,9.93,"gain_frame","f","safe",2345,0,1,0,777188
"479",9,1,45,-32,0.6,79,1,"loss_frame","f","safe",985,0,0,0,783180
"480",9,1,46,70,0.8,87,1,"gain_frame","f","safe",2281,0,0,0,790468
"481",9,1,47,40,0.95,81,0.52,"gain_frame","j","risky",2256,0,1,0,797731
"482",9,1,48,-12,0.8,63,1,"loss_frame","f","safe",2129,0,0,0,804868
"483",9,1,49,-41,0.4,69,1,"loss_frame","f","safe",928,0,0,0,810801
"484",9,1,50,39,0.6,65,1,"gain_frame","f","safe",1169,0,0,0,816979
"485",9,1,51,19,0.2,97,1,"gain_frame","f","safe",2060,0,0,0,824049
"486",9,1,52,-41,0.2,51,1,"loss_frame","f","safe",2872,0,0,0,831929
"487",10,0,1,46,0.8,58,1,"gain_frame","f","safe",1988,1,0,0,85063
"488",10,0,2,-50,0.2,62,1,"loss_frame","f","safe",3425,1,0,0,93532
"489",10,1,1,36,0.6,60,1,"gain_frame","j","risky",2100,0,0,0,116721
"490",10,1,2,-28,0.05,55,9.9,"loss_frame","f","safe",2406,0,1,0,124172
"491",10,1,3,36,0.05,72,9.98,"gain_frame","f","safe",1782,0,1,0,131006
"492",10,1,4,36,0.4,91,1,"gain_frame","f","safe",2980,0,0,0,139027
"493",10,1,5,-43,0.4,71,1,"loss_frame","f","safe",1503,0,0,0,145583
"494",10,1,6,11,0.2,54,1,"gain_frame","f","safe",1051,0,0,0,151681
"495",10,1,7,-64,0.2,80,1,"loss_frame","f","safe",1604,0,0,0,158335
"496",10,1,8,-15,0.8,75,1,"loss_frame","j","risky",956,0,0,0,164335
"497",10,1,9,-49,0.05,98,10.02,"loss_frame","f","safe",644,0,1,0,170025
"498",10,1,10,-34,0.95,69,0.53,"loss_frame","j","risky",558,0,1,0,175629
"499",10,1,11,20,0.2,99,1,"gain_frame","f","safe",1969,0,0,0,182655
"500",10,1,12,-40,0.4,66,1,"loss_frame","f","safe",1529,0,0,0,189232
"501",10,1,13,18,0.2,91,1,"gain_frame","f","safe",706,0,0,0,194988
"502",10,1,14,30,0.95,59,0.53,"gain_frame","j","risky",646,0,1,0,200688
"503",10,1,15,66,0.8,83,1,"gain_frame","j","risky",567,0,0,0,206305
"504",10,1,16,12,0.2,58,1,"gain_frame","f","safe",529,0,0,0,211884
"505",10,1,17,-12,0.8,64,1,"loss_frame","j","risky",469,0,0,0,217408
"506",10,1,18,40,0.8,51,1,"gain_frame","j","risky",451,0,0,0,222909
"507",10,1,19,-34,0.6,84,1,"loss_frame","j","risky",464,0,0,0,228415
"508",10,1,20,57,0.6,95,1,"gain_frame","j","risky",416,0,0,0,233878
"509",10,1,21,59,0.6,99,1,"gain_frame","j","risky",663,0,0,0,239591
"510",10,1,22,-10,0.8,53,1,"loss_frame","j","risky",593,0,0,0,245240
"511",10,1,23,-53,0.4,89,1,"loss_frame","f","safe",888,0,0,0,251180
"512",10,1,24,-74,0.2,93,1,"loss_frame","f","safe",778,0,0,0,257005
"513",10,1,25,-31,0.4,52,1,"loss_frame","f","safe",627,0,0,0,262681
"514",10,1,26,-28,0.6,69,1,"loss_frame","j","risky",506,0,0,0,268233
"515",10,1,27,17,0.2,85,1,"gain_frame","f","safe",628,0,0,0,273916
"516",10,1,28,35,0.95,70,0.52,"gain_frame","j","risky",472,0,1,0,279436
"517",10,1,29,29,0.05,59,9.89,"gain_frame","f","safe",940,0,1,0,285424
"518",10,1,30,-44,0.95,88,0.53,"loss_frame","j","risky",906,0,1,0,291381
"519",10,1,31,44,0.05,88,9.99,"gain_frame","f","safe",494,0,1,0,296921
"520",10,1,32,22,0.4,55,1,"gain_frame","f","safe",641,0,0,0,302612
"521",10,1,33,-46,0.95,93,0.53,"loss_frame","j","risky",685,0,1,0,308353
"522",10,1,34,-45,0.05,89,9.9,"loss_frame","f","safe",642,0,1,0,314055
"523",10,1,35,44,0.8,55,1,"gain_frame","j","risky",529,0,0,0,319642
"524",10,1,36,-49,0.4,81,1,"loss_frame","f","safe",715,0,0,0,325409
"525",10,1,37,-29,0.6,74,1,"loss_frame","j","risky",460,0,0,0,330918
"526",10,1,38,51,0.6,85,1,"gain_frame","j","risky",595,0,0,0,336546
"527",10,1,39,-31,0.6,79,1,"loss_frame","j","risky",892,0,0,0,342473
"528",10,1,40,-32,0.6,81,1,"loss_frame","j","risky",527,0,0,0,348059
"529",10,1,41,-14,0.8,70,1,"loss_frame","j","risky",491,0,0,0,353591
"530",10,1,42,-46,0.2,58,1,"loss_frame","f","safe",534,0,0,0,359173
"531",10,1,43,26,0.4,64,1,"gain_frame","f","safe",695,0,0,0,364909
"532",10,1,44,-12,0.8,61,1,"loss_frame","j","risky",460,0,0,0,370417
"533",10,1,45,32,0.95,64,0.53,"gain_frame","j","risky",418,0,1,0,375875
"534",10,1,46,38,0.4,95,1,"gain_frame","j","risky",366,0,0,0,381290
"535",10,1,47,31,0.4,77,1,"gain_frame","f","safe",812,0,0,0,387157
"536",10,1,48,-74,0.2,92,1,"loss_frame","f","safe",890,0,0,0,393100
"537",10,1,49,54,0.8,68,1,"gain_frame","j","risky",526,0,0,0,398670
"538",10,1,50,-48,0.2,60,1,"loss_frame","f","safe",658,0,0,0,404374
"539",10,1,51,58,0.6,97,1,"gain_frame","j","risky",484,0,0,0,409899
"540",10,1,52,63,0.8,78,1,"gain_frame","j","risky",487,0,0,1,415439
"541",11,0,1,42,0.6,70,1,"gain_frame","j","risky",3953,1,0,0,76426
"542",11,0,2,-79,0.2,99,1,"loss_frame","f","safe",4157,1,0,0,85660
"543",11,1,1,50,0.05,100,10.04,"gain_frame","f","safe",1013,0,1,0,100643
"544",11,1,2,-68,0.2,85,1,"loss_frame","f","safe",777,0,0,0,106465
"545",11,1,3,13,0.2,64,1,"gain_frame","f","safe",572,0,0,0,112080
"546",11,1,4,36,0.4,90,1,"gain_frame","f","safe",1146,0,0,0,118283
"547",11,1,5,-37,0.6,93,1,"loss_frame","j","risky",326,0,0,0,123660
"548",11,1,6,26,0.95,53,0.52,"gain_frame","j","risky",797,0,1,0,129517
"549",11,1,7,20,0.2,98,1,"gain_frame","j","risky",801,0,0,0,135391
"550",11,1,8,47,0.6,78,1,"gain_frame","j","risky",658,0,0,0,141108
"551",11,1,9,-11,0.8,56,1,"loss_frame","j","risky",605,0,0,0,146759
"552",11,1,10,41,0.6,68,1,"gain_frame","j","risky",2069,0,0,0,153882
"553",11,1,11,-66,0.2,83,1,"loss_frame","f","safe",878,0,0,0,159846
"554",11,1,12,-36,0.6,91,1,"loss_frame","j","risky",876,0,0,0,165760
"555",11,1,13,23,0.4,56,1,"gain_frame","f","safe",839,0,0,0,171631
"556",11,1,14,49,0.95,97,0.53,"gain_frame","j","risky",471,0,1,0,177144
"557",11,1,15,79,0.8,99,1,"gain_frame","j","risky",484,0,0,0,182667
"558",11,1,16,-36,0.95,72,0.53,"loss_frame","j","risky",396,0,1,0,188122
"559",11,1,17,-37,0.95,74,0.53,"loss_frame","j","risky",692,0,1,0,193886
"560",11,1,18,-34,0.4,57,1,"loss_frame","f","safe",1629,0,0,0,200562
"561",11,1,19,54,0.6,91,1,"gain_frame","j","risky",364,0,0,0,205960
"562",11,1,20,33,0.4,84,1,"gain_frame","f","safe",937,0,0,0,211967
"563",11,1,21,-53,0.4,88,1,"loss_frame","f","safe",661,0,0,0,217680
"564",11,1,22,43,0.05,85,10.09,"gain_frame","f","safe",637,0,1,0,223367
"565",11,1,23,-41,0.4,68,1,"loss_frame","f","safe",933,0,0,0,229343
"566",11,1,24,33,0.6,56,1,"gain_frame","j","risky",531,0,0,0,234930
"567",11,1,25,64,0.8,80,1,"gain_frame","j","risky",468,0,0,0,240466
"568",11,1,26,-46,0.2,57,1,"loss_frame","f","safe",490,0,0,0,246003
"569",11,1,27,-25,0.6,63,1,"loss_frame","j","risky",434,0,0,0,251507
"570",11,1,28,-12,0.8,60,1,"loss_frame","j","risky",389,0,0,0,256948
"571",11,1,29,-23,0.6,57,1,"loss_frame","j","risky",1683,0,0,0,263676
"572",11,1,30,31,0.05,63,9.91,"gain_frame","f","safe",476,0,1,0,269200
"573",11,1,31,23,0.4,56,1,"gain_frame","f","safe",857,0,0,1,275127
"574",11,1,32,35,0.4,87,1,"gain_frame","f","safe",523,0,0,0,280704
"575",11,1,33,-30,0.95,59,0.52,"loss_frame","j","risky",449,0,1,0,286193
"576",11,1,34,-19,0.8,96,1,"loss_frame","j","risky",330,0,0,0,291574
"577",11,1,35,57,0.8,71,1,"gain_frame","j","risky",454,0,0,0,297073
"578",11,1,36,-69,0.2,86,1,"loss_frame","f","safe",479,0,0,0,302605
"579",11,1,37,-60,0.4,100,1,"loss_frame","f","safe",1346,0,0,0,308980
"580",11,1,38,80,0.8,100,1,"gain_frame","j","risky",279,0,0,0,314297
"581",11,1,39,12,0.2,60,1,"gain_frame","f","safe",645,0,0,0,319995
"582",11,1,40,46,0.95,92,0.53,"gain_frame","j","risky",377,0,1,0,325446
"583",11,1,41,-38,0.05,75,9.92,"loss_frame","f","safe",680,0,1,0,331184
"584",11,1,42,19,0.2,94,1,"gain_frame","f","safe",778,0,0,0,337055
"585",11,1,43,18,0.2,91,1,"gain_frame","f","safe",647,0,0,0,342756
"586",11,1,44,40,0.6,67,1,"gain_frame","j","risky",770,0,0,0,348580
"587",11,1,45,-30,0.6,74,1,"loss_frame","j","risky",741,0,0,0,354387
"588",11,1,46,-48,0.05,97,10.08,"loss_frame","f","safe",956,0,1,0,360413
"589",11,1,47,-34,0.05,67,9.86,"loss_frame","f","safe",634,0,1,0,366091
"590",11,1,48,-53,0.2,66,1,"loss_frame","f","safe",516,0,0,0,371675
"591",11,1,49,62,0.8,78,1,"gain_frame","j","risky",888,0,0,0,377622
"592",11,1,50,-60,0.4,99,1,"loss_frame","f","safe",1694,0,0,0,384349
"593",11,1,51,-15,0.8,72,1,"loss_frame","j","risky",523,0,0,0,389903
"594",11,1,52,-18,0.8,90,1,"loss_frame","j","risky",477,0,0,0,395450
"595",12,0,1,32,0.6,54,1,"gain_frame","j","risky",2771,1,0,0,52201
"596",12,0,2,-77,0.2,96,1,"loss_frame","f","safe",3257,1,0,0,60475
"597",12,1,1,43,0.6,72,1,"gain_frame","j","risky",3190,0,0,0,89503
"598",12,1,2,-67,0.2,84,1,"loss_frame","j","risky",3502,0,0,0,98021
"599",12,1,3,52,0.6,86,1,"gain_frame","f","safe",1896,0,0,0,104934
"600",12,1,4,19,0.2,97,1,"gain_frame","j","risky",2401,0,0,0,112357
"601",12,1,5,-11,0.8,56,1,"loss_frame","j","risky",1665,0,0,0,119040
"602",12,1,6,-63,0.2,79,1,"loss_frame","j","risky",1979,0,0,0,126038
"603",12,1,7,-31,0.4,52,1,"loss_frame","j","risky",2989,0,0,0,134043
"604",12,1,8,-27,0.95,54,0.52,"loss_frame","f","safe",1628,0,1,0,140689
"605",12,1,9,20,0.2,98,1,"gain_frame","j","risky",2241,0,0,0,147948
"606",12,1,10,68,0.8,85,1,"gain_frame","j","risky",1552,0,0,0,154513
"607",12,1,11,-24,0.6,59,1,"loss_frame","j","risky",1798,0,0,0,161335
"608",12,1,12,-25,0.95,50,0.52,"loss_frame","j","risky",1111,0,1,0,167458
"609",12,1,13,31,0.95,61,0.53,"gain_frame","j","risky",1174,0,1,1,173639
"610",12,1,14,17,0.2,84,1,"gain_frame","j","risky",1922,0,0,0,180578
"611",12,1,15,-47,0.95,94,0.53,"loss_frame","j","risky",623,0,1,0,186215
"612",12,1,16,73,0.8,91,1,"gain_frame","f","safe",2585,0,0,0,193815
"613",12,1,17,80,0.8,100,1,"gain_frame","f","safe",1697,0,0,0,200530
"614",12,1,18,-26,0.6,65,1,"loss_frame","j","risky",1609,0,0,0,207155
"615",12,1,19,-40,0.4,66,1,"loss_frame","j","risky",2560,0,0,0,214728
"616",12,1,20,46,0.95,93,0.52,"gain_frame","j","risky",844,0,1,0,220590
"617",12,1,21,-58,0.2,73,1,"loss_frame","j","risky",1829,0,0,0,227438
"618",12,1,22,22,0.4,55,1,"gain_frame","j","risky",1600,0,0,0,234052
"619",12,1,23,-14,0.8,71,1,"loss_frame","j","risky",2393,0,0,0,241460
"620",12,1,24,43,0.8,54,1,"gain_frame","f","safe",2336,0,0,0,248815
"621",12,1,25,-55,0.4,92,1,"loss_frame","j","risky",1635,0,0,0,255465
"622",12,1,26,27,0.4,67,1,"gain_frame","j","risky",1158,0,0,0,261642
"623",12,1,27,-35,0.6,86,1,"loss_frame","f","safe",3697,0,0,0,270351
"624",12,1,28,-26,0.05,52,9.96,"loss_frame","f","safe",1408,0,1,0,276778
"625",12,1,29,29,0.05,57,10.12,"gain_frame","f","safe",1169,0,1,0,282965
"626",12,1,30,41,0.05,83,9.93,"gain_frame","f","safe",797,0,1,0,288779
"627",12,1,31,54,0.6,89,1,"gain_frame","f","safe",2657,0,0,0,296453
"628",12,1,32,18,0.2,91,1,"gain_frame","j","risky",1520,0,0,0,302992
"629",12,1,33,43,0.95,85,0.53,"gain_frame","j","risky",826,0,1,0,308838
"630",12,1,34,19,0.2,94,1,"gain_frame","j","risky",1373,0,0,0,315227
"631",12,1,35,38,0.4,94,1,"gain_frame","j","risky",1722,0,0,0,321963
"632",12,1,36,-21,0.6,52,1,"loss_frame","j","risky",3480,0,0,0,330460
"633",12,1,37,-13,0.8,65,1,"loss_frame","j","risky",1552,0,0,0,337031
"634",12,1,38,43,0.6,71,1,"gain_frame","j","risky",1855,0,0,0,343905
"635",12,1,39,-44,0.4,74,1,"loss_frame","f","safe",2653,0,0,0,351575
"636",12,1,40,69,0.8,87,1,"gain_frame","f","safe",2227,0,0,0,358817
"637",12,1,41,31,0.4,78,1,"gain_frame","j","risky",2695,0,0,0,366530
"638",12,1,42,-43,0.05,86,9.99,"loss_frame","f","safe",2521,0,1,0,374066
"639",12,1,43,-42,0.2,52,1,"loss_frame","j","risky",2056,0,0,0,381144
"640",12,1,44,-34,0.6,85,1,"loss_frame","j","risky",1400,0,0,0,387560
"641",12,1,45,26,0.4,64,1,"gain_frame","j","risky",1600,0,0,0,394174
"642",12,1,46,-39,0.05,77,9.92,"loss_frame","f","safe",2157,0,1,0,401348
"643",12,1,47,-15,0.8,73,1,"loss_frame","f","safe",2269,0,0,0,408638
"644",12,1,48,49,0.6,82,1,"gain_frame","j","risky",1496,0,0,0,415150
"645",12,1,49,43,0.05,87,9.91,"gain_frame","f","safe",1371,0,1,0,421540
"646",12,1,50,-10,0.8,51,1,"loss_frame","f","safe",1621,0,0,0,428180
"647",12,1,51,-72,0.2,90,1,"loss_frame","j","risky",1575,0,0,0,434778
"648",12,1,52,-54,0.4,90,1,"loss_frame","j","risky",2084,0,0,0,441876
"649",13,0,1,35,0.4,87,1,"gain_frame","j","risky",889,1,0,0,144207
"650",13,0,2,-69,0.2,86,1,"loss_frame","j","risky",927,1,0,0,150179
"651",13,1,1,35,0.05,70,10.01,"gain_frame","f","safe",1678,0,1,0,181800
"652",13,1,2,13,0.2,67,1,"gain_frame","no_choice","no_choice",-1,0,0,0,190843
"653",13,1,3,-40,0.05,80,10.05,"loss_frame","f","safe",2045,0,1,0,197959
"654",13,1,4,21,0.4,52,1,"gain_frame","f","safe",849,0,0,0,203854
"655",13,1,5,-20,0.8,97,1,"loss_frame","f","safe",603,0,0,0,209491
"656",13,1,6,-11,0.8,52,1,"loss_frame","f","safe",1651,0,0,0,216177
"657",13,1,7,67,0.8,84,1,"gain_frame","f","safe",17,0,0,0,221235
"658",13,1,8,32,0.4,81,1,"gain_frame","f","safe",126,0,0,0,226422
"659",13,1,9,-34,0.6,85,1,"loss_frame","j","risky",588,0,0,0,232046
"660",13,1,10,-27,0.05,54,10,"loss_frame","j","risky",218,0,1,0,237313
"661",13,1,11,-59,0.4,98,1,"loss_frame","j","risky",140,0,0,0,242530
"662",13,1,12,-39,0.6,99,1,"loss_frame","j","risky",21,0,0,0,247627
"663",13,1,13,36,0.6,61,1,"gain_frame","j","risky",124,0,0,0,252808
"664",13,1,14,-57,0.4,95,1,"loss_frame","f","safe",37,0,0,0,257888
"665",13,1,15,56,0.8,70,1,"gain_frame","f","safe",112,0,0,0,263037
"666",13,1,16,-48,0.4,80,1,"loss_frame","j","risky",150,0,0,0,268217
"667",13,1,17,-42,0.2,52,1,"loss_frame","f","safe",151,0,0,0,273429
"668",13,1,18,-29,0.6,72,1,"loss_frame","j","risky",465,0,0,0,278975
"669",13,1,19,12,0.2,62,1,"gain_frame","j","risky",45,0,0,0,284070
"670",13,1,20,45,0.6,75,1,"gain_frame","f","safe",169,0,0,0,289287
"671",13,1,21,-27,0.95,54,0.53,"loss_frame","j","risky",79,0,1,0,294414
"672",13,1,22,-42,0.2,53,1,"loss_frame","j","risky",322,0,0,0,299767
"673",13,1,23,-42,0.2,53,1,"loss_frame","j","risky",1607,0,0,0,306401
"674",13,1,24,12,0.2,61,1,"gain_frame","j","risky",418,0,0,0,311860
"675",13,1,25,43,0.6,72,1,"gain_frame","j","risky",76,0,0,0,316989
"676",13,1,26,28,0.4,71,1,"gain_frame","f","safe",633,0,0,0,322654
"677",13,1,27,30,0.4,75,1,"gain_frame","f","safe",1935,0,0,0,329639
"678",13,1,28,-19,0.8,97,1,"loss_frame","f","safe",1433,0,0,0,336138
"679",13,1,29,-41,0.2,51,1,"loss_frame","j","risky",2568,0,0,0,343751
"680",13,1,30,14,0.2,69,1,"gain_frame","j","risky",723,0,0,0,349503
"681",13,1,31,48,0.95,96,0.53,"gain_frame","j","risky",669,0,1,0,355207
"682",13,1,32,-15,0.8,74,1,"loss_frame","j","risky",857,0,0,0,361129
"683",13,1,33,55,0.6,92,1,"gain_frame","j","risky",956,0,0,0,367137
"684",13,1,34,-53,0.4,88,1,"loss_frame","j","risky",1755,0,0,0,373925
"685",13,1,35,75,0.8,94,1,"gain_frame","j","risky",689,0,0,0,379680
"686",13,1,36,-14,0.8,72,1,"loss_frame","j","risky",219,0,0,0,384955
"687",13,1,37,42,0.95,84,0.53,"gain_frame","j","risky",851,0,1,0,390846
"688",13,1,38,48,0.05,95,10.08,"gain_frame","f","safe",333,0,1,0,396222
"689",13,1,39,-58,0.4,97,1,"loss_frame","j","risky",412,0,0,0,401695
"690",13,1,40,29,0.05,59,9.84,"gain_frame","f","safe",523,0,1,0,407256
"691",13,1,41,-33,0.95,67,0.53,"loss_frame","f","safe",310,0,1,0,412610
"692",13,1,42,-28,0.95,56,0.53,"loss_frame","j","risky",169,0,1,0,417829
"693",13,1,43,12,0.2,60,1,"gain_frame","j","risky",91,0,0,0,422976
"694",13,1,44,-37,0.05,73,9.92,"loss_frame","j","risky",475,0,1,0,428502
"695",13,1,45,-29,0.6,71,1,"loss_frame","j","risky",229,0,0,0,433778
"696",13,1,46,-38,0.6,95,1,"loss_frame","j","risky",365,0,0,0,439176
"697",13,1,47,-58,0.2,73,1,"loss_frame","j","risky",589,0,0,1,444815
"698",13,1,48,28,0.95,57,0.52,"gain_frame","j","risky",2898,0,1,0,452754
"699",13,1,49,38,0.4,94,1,"gain_frame","j","risky",813,0,0,0,458596
"700",13,1,50,73,0.8,91,1,"gain_frame","j","risky",593,0,0,0,464226
"701",13,1,51,45,0.8,56,1,"gain_frame","j","risky",275,0,0,0,469556
"702",13,1,52,43,0.6,72,1,"gain_frame","j","risky",500,0,0,0,475105
"703",14,0,1,63,0.8,79,1,"gain_frame","j","risky",1277,1,0,0,46632
"704",14,0,2,-26,0.6,65,1,"loss_frame","j","risky",457,1,0,0,52153
"705",14,1,1,-36,0.05,72,9.97,"loss_frame","f","safe",1473,0,1,0,98966
"706",14,1,2,44,0.05,88,10.02,"gain_frame","j","risky",1066,0,1,0,105080
"707",14,1,3,11,0.2,53,1,"gain_frame","j","risky",1036,0,0,0,111184
"708",14,1,4,60,0.8,75,1,"gain_frame","f","safe",1229,0,0,0,117448
"709",14,1,5,-34,0.6,84,1,"loss_frame","f","safe",454,0,0,0,122937
"710",14,1,6,-16,0.8,83,1,"loss_frame","f","safe",237,0,0,0,128217
"711",14,1,7,43,0.8,54,1,"gain_frame","f","safe",917,0,0,0,134171
"712",14,1,8,19,0.2,94,1,"gain_frame","f","safe",1426,0,0,0,140662
"713",14,1,9,-60,0.4,99,1,"loss_frame","f","safe",879,0,0,0,146589
"714",14,1,10,14,0.2,70,1,"gain_frame","j","risky",786,0,0,0,152408
"715",14,1,11,47,0.05,95,9.91,"gain_frame","f","safe",879,0,1,0,158354
"716",14,1,12,38,0.6,63,1,"gain_frame","f","safe",688,0,0,0,164073
"717",14,1,13,-55,0.4,91,1,"loss_frame","f","safe",767,0,0,0,169907
"718",14,1,14,30,0.4,76,1,"gain_frame","no_choice","no_choice",-1,0,0,0,178949
"719",14,1,15,21,0.4,51,1,"gain_frame","no_choice","no_choice",-1,0,0,0,187989
"720",14,1,16,27,0.4,67,1,"gain_frame","no_choice","no_choice",-1,0,0,0,197040
"721",14,1,17,-54,0.4,91,1,"loss_frame","no_choice","no_choice",-1,0,0,0,206115
"722",14,1,18,32,0.6,54,1,"gain_frame","no_choice","no_choice",-1,0,0,0,215171
"723",14,1,19,48,0.95,96,0.53,"gain_frame","no_choice","no_choice",-1,0,1,0,224246
"724",14,1,20,-28,0.6,69,1,"loss_frame","no_choice","no_choice",-1,0,0,0,233327
"725",14,1,21,25,0.4,63,1,"gain_frame","no_choice","no_choice",-1,0,0,0,242375
"726",14,1,22,-31,0.6,79,1,"loss_frame","no_choice","no_choice",-1,0,0,0,251410
"727",14,1,23,-41,0.95,82,0.53,"loss_frame","no_choice","no_choice",-1,0,1,0,260468
"728",14,1,24,-29,0.6,73,1,"loss_frame","f","safe",747,0,0,0,266272
"729",14,1,25,13,0.2,63,1,"gain_frame","f","safe",1552,0,0,0,272896
"730",14,1,26,-17,0.8,85,1,"loss_frame","f","safe",812,0,0,0,278746
"731",14,1,27,34,0.95,69,0.52,"gain_frame","j","risky",805,0,1,0,284595
"732",14,1,28,69,0.8,86,1,"gain_frame","f","safe",4,0,0,0,289651
"733",14,1,29,41,0.05,82,10.05,"gain_frame","f","safe",982,0,1,0,295684
"734",14,1,30,-50,0.2,62,1,"loss_frame","f","safe",1328,0,0,0,302031
"735",14,1,31,34,0.6,56,1,"gain_frame","f","safe",1169,0,0,0,308273
"736",14,1,32,17,0.2,84,1,"gain_frame","j","risky",949,0,0,0,314270
"737",14,1,33,-41,0.05,82,10.05,"loss_frame","j","risky",762,0,1,0,320099
"738",14,1,34,-12,0.8,60,1,"loss_frame","j","risky",724,0,0,0,325873
"739",14,1,35,-40,0.4,67,1,"loss_frame","j","risky",843,0,0,0,331766
"740",14,1,36,-60,0.2,75,1,"loss_frame","f","safe",1950,0,0,0,338779
"741",14,1,37,-17,0.8,84,1,"loss_frame","j","risky",833,0,0,0,344656
"742",14,1,38,-60,0.2,75,1,"loss_frame","f","safe",508,0,0,0,350212
"743",14,1,39,21,0.4,52,1,"gain_frame","f","safe",257,0,0,0,355532
"744",14,1,40,-28,0.05,56,10.06,"loss_frame","j","risky",1050,0,1,0,361638
"745",14,1,41,59,0.8,73,1,"gain_frame","j","risky",767,0,0,0,367443
"746",14,1,42,-43,0.4,71,1,"loss_frame","f","safe",1151,0,0,0,373638
"747",14,1,43,33,0.6,55,1,"gain_frame","j","risky",2150,0,0,0,380841
"748",14,1,44,46,0.8,58,1,"gain_frame","f","safe",1461,0,0,0,387346
"749",14,1,45,-47,0.95,95,0.53,"loss_frame","f","safe",683,0,1,0,393108
"750",14,1,46,-51,0.2,64,1,"loss_frame","j","risky",800,0,0,0,398947
"751",14,1,47,-21,0.6,53,1,"loss_frame","j","risky",1419,0,0,0,405404
"752",14,1,48,-15,0.8,74,1,"loss_frame","f","safe",21,0,0,0,410497
"753",14,1,49,-43,0.95,85,0.52,"loss_frame","j","risky",374,0,1,0,415931
"754",14,1,50,30,0.95,59,0.54,"gain_frame","j","risky",450,0,1,0,421503
"755",14,1,51,55,0.6,91,1,"gain_frame","j","risky",869,0,0,1,427463
"756",14,1,52,-55,0.2,69,1,"loss_frame","f","safe",1350,0,0,0,433823
"757",15,0,1,58,0.6,97,1,"gain_frame","f","safe",1062,1,0,0,71282
"758",15,0,2,-23,0.6,57,1,"loss_frame","j","risky",1121,1,0,0,77424
"759",15,1,1,-19,0.8,95,1,"loss_frame","j","risky",795,0,0,0,249806
"760",15,1,2,-33,0.95,65,0.52,"loss_frame","j","risky",1192,0,1,0,256013
"761",15,1,3,12,0.2,58,1,"gain_frame","f","safe",765,0,0,0,261790
"762",15,1,4,-58,0.4,97,1,"loss_frame","f","safe",763,0,0,0,267565
"763",15,1,5,34,0.95,67,0.53,"gain_frame","j","risky",921,0,1,0,273501
"764",15,1,6,32,0.4,79,1,"gain_frame","f","safe",1000,0,0,0,279519
"765",15,1,7,-54,0.4,91,1,"loss_frame","j","risky",939,0,0,0,285471
"766",15,1,8,-42,0.2,52,1,"loss_frame","f","safe",1497,0,0,0,291982
"767",15,1,9,-27,0.6,67,1,"loss_frame","j","risky",892,0,0,0,297885
"768",15,1,10,28,0.05,55,10.18,"gain_frame","f","safe",941,0,1,0,303839
"769",15,1,11,-17,0.8,87,1,"loss_frame","j","risky",846,0,0,0,309697
"770",15,1,12,49,0.05,99,9.91,"gain_frame","f","safe",825,0,1,0,315534
"771",15,1,13,-39,0.05,78,10.04,"loss_frame","f","safe",2554,0,1,0,323102
"772",15,1,14,-11,0.8,57,1,"loss_frame","j","risky",1004,0,0,0,329117
"773",15,1,15,-42,0.4,70,1,"loss_frame","f","safe",2684,0,0,0,336812
"774",15,1,16,72,0.8,89,1,"gain_frame","f","safe",943,0,0,0,342767
"775",15,1,17,-57,0.2,71,1,"loss_frame","j","risky",1914,0,0,0,349692
"776",15,1,18,51,0.6,85,1,"gain_frame","f","safe",1648,0,0,0,356351
"777",15,1,19,-66,0.2,83,1,"loss_frame","f","safe",1948,0,0,0,363311
"778",15,1,20,-35,0.05,70,10.06,"loss_frame","f","safe",1500,0,1,0,369821
"779",15,1,21,63,0.8,79,1,"gain_frame","j","risky",1598,0,0,1,376430
"780",15,1,22,33,0.4,84,1,"gain_frame","f","safe",893,0,0,0,382336
"781",15,1,23,-42,0.05,84,10.02,"loss_frame","f","safe",1451,0,1,0,388798
"782",15,1,24,-15,0.8,74,1,"loss_frame","j","risky",846,0,0,0,394653
"783",15,1,25,-57,0.2,71,1,"loss_frame","f","safe",1688,0,0,0,401359
"784",15,1,26,19,0.2,96,1,"gain_frame","f","safe",986,0,0,0,407357
"785",15,1,27,-39,0.6,98,1,"loss_frame","j","risky",1085,0,0,0,413452
"786",15,1,28,32,0.4,80,1,"gain_frame","f","safe",862,0,0,0,419327
"787",15,1,29,26,0.95,52,0.53,"gain_frame","j","risky",1820,0,1,0,426159
"788",15,1,30,-35,0.6,88,1,"loss_frame","j","risky",1051,0,0,0,432222
"789",15,1,31,20,0.2,99,1,"gain_frame","f","safe",895,0,0,0,438126
"790",15,1,32,49,0.8,61,1,"gain_frame","j","risky",2217,0,0,0,445357
"791",15,1,33,35,0.05,70,9.95,"gain_frame","f","safe",1149,0,1,0,451521
"792",15,1,34,-59,0.4,98,1,"loss_frame","f","safe",2250,0,0,0,458780
"793",15,1,35,57,0.6,95,1,"gain_frame","j","risky",2062,0,0,0,465854
"794",15,1,36,-31,0.4,51,1,"loss_frame","j","risky",1214,0,0,0,472078
"795",15,1,37,47,0.6,79,1,"gain_frame","f","safe",2230,0,0,0,479326
"796",15,1,38,71,0.8,89,1,"gain_frame","j","risky",746,0,0,0,485087
"797",15,1,39,12,0.2,58,1,"gain_frame","f","safe",1222,0,0,0,491324
"798",15,1,40,-19,0.8,93,1,"loss_frame","j","risky",875,0,0,0,497213
"799",15,1,41,-48,0.95,95,0.52,"loss_frame","j","risky",802,0,1,0,503029
"800",15,1,42,-25,0.6,63,1,"loss_frame","j","risky",1204,0,0,0,509245
"801",15,1,43,19,0.2,94,1,"gain_frame","j","risky",1933,0,0,0,516189
"802",15,1,44,44,0.6,73,1,"gain_frame","j","risky",3324,0,0,0,524526
"803",15,1,45,55,0.8,68,1,"gain_frame","j","risky",1675,0,0,0,531212
"804",15,1,46,-73,0.2,91,1,"loss_frame","j","risky",2989,0,0,0,539214
"805",15,1,47,-29,0.6,72,1,"loss_frame","j","risky",959,0,0,0,545186
"806",15,1,48,43,0.95,86,0.53,"gain_frame","j","risky",1179,0,1,0,551374
"807",15,1,49,-34,0.95,68,0.53,"loss_frame","j","risky",1164,0,1,0,557550
"808",15,1,50,45,0.6,75,1,"gain_frame","f","safe",1582,0,0,0,564142
"809",15,1,51,27,0.4,67,1,"gain_frame","f","safe",926,0,0,0,570078
"810",15,1,52,32,0.4,80,1,"gain_frame","f","safe",1170,0,0,0,576256
"811",16,0,1,20,0.4,50,1,"gain_frame","j","risky",5296,1,0,0,90317
"812",16,0,2,-39,0.4,65,1,"loss_frame","j","risky",5548,1,0,0,100872
"813",16,1,1,38,0.05,75,10.1,"gain_frame","f","safe",1832,0,1,0,152396
"814",16,1,2,44,0.8,55,1,"gain_frame","j","risky",1583,0,0,1,158984
"815",16,1,3,-36,0.05,72,9.98,"loss_frame","f","safe",1561,0,1,0,165550
"816",16,1,4,49,0.6,82,1,"gain_frame","j","risky",2204,0,0,0,172760
"817",16,1,5,-70,0.2,87,1,"loss_frame","f","safe",1341,0,0,0,179106
"818",16,1,6,29,0.05,59,9.86,"gain_frame","f","safe",1783,0,1,0,185894
"819",16,1,7,-29,0.6,73,1,"loss_frame","j","risky",1299,0,0,0,192198
"820",16,1,8,19,0.2,96,1,"gain_frame","f","safe",1601,0,0,0,198804
"821",16,1,9,41,0.95,82,0.53,"gain_frame","j","risky",777,0,1,0,204586
"822",16,1,10,37,0.4,93,1,"gain_frame","j","risky",1259,0,0,0,210850
"823",16,1,11,-45,0.05,90,9.95,"loss_frame","f","safe",1399,0,1,0,217254
"824",16,1,12,12,0.2,61,1,"gain_frame","j","risky",2085,0,0,0,224344
"825",16,1,13,38,0.95,76,0.52,"gain_frame","j","risky",817,0,1,0,230166
"826",16,1,14,-35,0.6,87,1,"loss_frame","j","risky",877,0,0,0,236048
"827",16,1,15,28,0.05,55,10.12,"gain_frame","f","safe",937,0,1,0,241990
"828",16,1,16,48,0.8,60,1,"gain_frame","j","risky",1060,0,0,0,248054
"829",16,1,17,-42,0.2,53,1,"loss_frame","f","safe",796,0,0,0,253854
"830",16,1,18,-58,0.2,73,1,"loss_frame","f","safe",1401,0,0,0,260260
"831",16,1,19,11,0.2,56,1,"gain_frame","j","risky",1803,0,0,0,267068
"832",16,1,20,47,0.6,79,1,"gain_frame","j","risky",817,0,0,0,272890
"833",16,1,21,-44,0.4,74,1,"loss_frame","j","risky",1299,0,0,0,279194
"834",16,1,22,15,0.2,73,1,"gain_frame","j","risky",1642,0,0,0,285840
"835",16,1,23,-45,0.95,90,0.53,"loss_frame","j","risky",656,0,1,0,291502
"836",16,1,24,28,0.4,70,1,"gain_frame","j","risky",1137,0,0,0,297644
"837",16,1,25,-39,0.6,99,1,"loss_frame","j","risky",697,0,0,0,303346
"838",16,1,26,14,0.2,72,1,"gain_frame","j","risky",1701,0,0,0,310052
"839",16,1,27,33,0.4,82,1,"gain_frame","j","risky",816,0,0,0,315874
"840",16,1,28,-12,0.8,59,1,"loss_frame","j","risky",534,0,0,0,321412
"841",16,1,29,-26,0.6,65,1,"loss_frame","j","risky",655,0,0,0,327072
"842",16,1,30,-31,0.05,62,9.98,"loss_frame","f","safe",737,0,1,0,332814
"843",16,1,31,-12,0.8,57,1,"loss_frame","j","risky",836,0,0,0,338654
"844",16,1,32,34,0.4,84,1,"gain_frame","j","risky",897,0,0,0,344556
"845",16,1,33,-27,0.95,55,0.53,"loss_frame","j","risky",655,0,1,0,350216
"846",16,1,34,-68,0.2,85,1,"loss_frame","f","safe",1199,0,0,0,356420
"847",16,1,35,-33,0.4,55,1,"loss_frame","j","risky",1379,0,0,0,362804
"848",16,1,36,77,0.8,97,1,"gain_frame","j","risky",697,0,0,0,368506
"849",16,1,37,-38,0.4,63,1,"loss_frame","j","risky",1661,0,0,0,375172
"850",16,1,38,29,0.4,73,1,"gain_frame","j","risky",1501,0,0,0,381678
"851",16,1,39,75,0.8,93,1,"gain_frame","j","risky",736,0,0,0,387420
"852",16,1,40,73,0.8,91,1,"gain_frame","j","risky",492,0,0,0,392918
"853",16,1,41,-17,0.8,85,1,"loss_frame","j","risky",635,0,0,0,398558
"854",16,1,42,-35,0.4,58,1,"loss_frame","j","risky",1379,0,0,0,404942
"855",16,1,43,-49,0.95,98,0.53,"loss_frame","j","risky",1543,0,1,0,411490
"856",16,1,44,59,0.6,98,1,"gain_frame","j","risky",1259,0,0,0,417754
"857",16,1,45,-55,0.2,69,1,"loss_frame","j","risky",2164,0,0,0,424924
"858",16,1,46,43,0.6,71,1,"gain_frame","j","risky",735,0,0,0,430664
"859",16,1,47,37,0.6,62,1,"gain_frame","j","risky",937,0,0,0,436606
"860",16,1,48,-37,0.4,62,1,"loss_frame","j","risky",1299,0,0,0,442910
"861",16,1,49,-20,0.6,50,1,"loss_frame","j","risky",475,0,0,0,448390
"862",16,1,50,-18,0.8,91,1,"loss_frame","j","risky",857,0,0,0,454252
"863",16,1,51,37,0.95,75,0.52,"gain_frame","j","risky",835,0,1,0,460092
"864",16,1,52,-19,0.8,98,1,"loss_frame","j","risky",999,0,0,0,466096
"865",17,0,1,56,0.6,93,1,"gain_frame","j","risky",2296,1,0,0,125074
"866",17,0,2,-12,0.8,61,1,"loss_frame","j","risky",892,1,0,0,131016
"867",17,1,1,-30,0.05,59,9.84,"loss_frame","f","safe",816,0,1,0,161926
"868",17,1,2,39,0.05,79,9.88,"gain_frame","f","safe",833,0,1,0,167836
"869",17,1,3,-19,0.8,92,1,"loss_frame","j","risky",553,0,0,0,173456
"870",17,1,4,-15,0.8,78,1,"loss_frame","j","risky",709,0,0,0,179252
"871",17,1,5,69,0.8,86,1,"gain_frame","j","risky",486,0,0,0,184801
"872",17,1,6,15,0.2,76,1,"gain_frame","f","safe",1142,0,0,0,191002
"873",17,1,7,-47,0.2,59,1,"loss_frame","f","safe",691,0,0,0,196759
"874",17,1,8,-29,0.6,72,1,"loss_frame","j","risky",978,0,0,0,202804
"875",17,1,9,42,0.95,85,0.52,"gain_frame","j","risky",990,0,1,0,208869
"876",17,1,10,43,0.95,85,0.53,"gain_frame","j","risky",729,0,1,0,214662
"877",17,1,11,-36,0.6,91,1,"loss_frame","j","risky",1123,0,0,0,220850
"878",17,1,12,-44,0.95,89,0.53,"loss_frame","j","risky",822,0,1,0,226749
"879",17,1,13,-43,0.05,85,9.9,"loss_frame","f","safe",773,0,1,0,232592
"880",17,1,14,-47,0.05,93,9.94,"loss_frame","f","safe",876,0,1,0,238530
"881",17,1,15,58,0.6,97,1,"gain_frame","j","risky",969,0,0,0,244572
"882",17,1,16,17,0.2,86,1,"gain_frame","f","safe",621,0,0,0,250254
"883",17,1,17,-43,0.4,71,1,"loss_frame","f","safe",1483,0,0,0,256814
"884",17,1,18,41,0.6,68,1,"gain_frame","j","risky",742,0,0,0,262624
"885",17,1,19,-46,0.4,77,1,"loss_frame","f","safe",947,0,0,0,268629
"886",17,1,20,26,0.4,66,1,"gain_frame","f","safe",754,0,0,0,274449
"887",17,1,21,-19,0.8,96,1,"loss_frame","j","risky",907,0,0,0,280392
"888",17,1,22,-31,0.4,51,1,"loss_frame","f","safe",1106,0,0,0,286565
"889",17,1,23,78,0.8,98,1,"gain_frame","j","risky",534,0,0,0,292163
"890",17,1,24,-18,0.8,88,1,"loss_frame","j","risky",668,0,0,0,297904
"891",17,1,25,59,0.6,98,1,"gain_frame","j","risky",851,0,0,0,303826
"892",17,1,26,-50,0.4,84,1,"loss_frame","f","safe",634,0,0,0,309523
"893",17,1,27,-58,0.2,72,1,"loss_frame","f","safe",875,0,0,0,315458
"894",17,1,28,-27,0.95,53,0.52,"loss_frame","j","risky",561,0,1,0,321082
"895",17,1,29,-57,0.4,95,1,"loss_frame","f","safe",720,0,0,0,326862
"896",17,1,30,54,0.6,89,1,"gain_frame","j","risky",600,0,0,1,332539
"897",17,1,31,21,0.4,54,1,"gain_frame","f","safe",519,0,0,0,338134
"898",17,1,32,53,0.8,66,1,"gain_frame","j","risky",1355,0,0,0,344544
"899",17,1,33,-37,0.6,92,1,"loss_frame","j","risky",820,0,0,0,350434
"900",17,1,34,13,0.2,66,1,"gain_frame","f","safe",1435,0,0,0,356949
"901",17,1,35,59,0.6,98,1,"gain_frame","j","risky",1060,0,0,0,363074
"902",17,1,36,-44,0.2,55,1,"loss_frame","f","safe",1134,0,0,0,369279
"903",17,1,37,42,0.05,84,10.02,"gain_frame","f","safe",625,0,1,0,374962
"904",17,1,38,34,0.4,85,1,"gain_frame","f","safe",804,0,0,0,380820
"905",17,1,39,-30,0.95,60,0.53,"loss_frame","j","risky",604,0,1,0,386501
"906",17,1,40,41,0.8,51,1,"gain_frame","j","risky",1262,0,0,0,392824
"907",17,1,41,-19,0.8,96,1,"loss_frame","j","risky",794,0,0,0,398671
"908",17,1,42,28,0.4,70,1,"gain_frame","f","safe",695,0,0,0,404434
"909",17,1,43,-71,0.2,89,1,"loss_frame","f","safe",554,0,0,0,410066
"910",17,1,44,34,0.95,67,0.53,"gain_frame","j","risky",1197,0,1,0,416324
"911",17,1,45,-39,0.6,96,1,"loss_frame","j","risky",1014,0,0,0,422385
"912",17,1,46,-29,0.6,73,1,"loss_frame","j","risky",728,0,0,0,428170
"913",17,1,47,66,0.8,82,1,"gain_frame","j","risky",572,0,0,0,433806
"914",17,1,48,47,0.05,94,10.04,"gain_frame","f","safe",1353,0,1,0,440221
"915",17,1,49,-80,0.2,100,1,"loss_frame","f","safe",1584,0,0,0,446872
"916",17,1,50,16,0.2,80,1,"gain_frame","f","safe",1040,0,0,0,452965
"917",17,1,51,15,0.2,73,1,"gain_frame","f","safe",732,0,0,0,458751
"918",17,1,52,21,0.4,53,1,"gain_frame","f","safe",1082,0,0,0,464891
"919",18,0,1,72,0.8,90,1,"gain_frame","f","safe",2527,1,0,0,71600
"920",18,0,2,-18,0.8,89,1,"loss_frame","f","safe",1298,1,0,0,77917
"921",18,1,1,73,0.8,91,1,"gain_frame","f","safe",1714,0,0,0,103144
"922",18,1,2,20,0.2,99,1,"gain_frame","f","safe",1723,0,0,0,109895
"923",18,1,3,-28,0.6,71,1,"loss_frame","f","safe",2317,0,0,0,117232
"924",18,1,4,-40,0.4,66,1,"loss_frame","f","safe",899,0,0,1,123159
"925",18,1,5,45,0.95,90,0.53,"gain_frame","j","risky",748,0,1,0,128935
"926",18,1,6,41,0.8,52,1,"gain_frame","j","risky",1183,0,0,0,135146
"927",18,1,7,32,0.6,53,1,"gain_frame","f","safe",1036,0,0,0,141212
"928",18,1,8,56,0.8,70,1,"gain_frame","f","safe",1694,0,0,0,147934
"929",18,1,9,-31,0.05,63,10.15,"loss_frame","f","safe",1356,0,1,0,154314
"930",18,1,10,-30,0.4,50,1,"loss_frame","f","safe",935,0,0,0,160275
"931",18,1,11,38,0.4,94,1,"gain_frame","f","safe",782,0,0,0,166086
"932",18,1,12,-39,0.6,97,1,"loss_frame","f","safe",1593,0,0,0,172704
"933",18,1,13,-57,0.2,71,1,"loss_frame","f","safe",665,0,0,0,178392
"934",18,1,14,-12,0.8,60,1,"loss_frame","f","safe",1779,0,0,0,185196
"935",18,1,15,19,0.2,95,1,"gain_frame","f","safe",1225,0,0,0,191448
"936",18,1,16,31,0.05,63,9.89,"gain_frame","f","safe",1074,0,1,0,197548
"937",18,1,17,32,0.4,81,1,"gain_frame","f","safe",1284,0,0,0,203858
"938",18,1,18,44,0.6,74,1,"gain_frame","f","safe",1533,0,0,0,210418
"939",18,1,19,-17,0.8,86,1,"loss_frame","j","risky",1946,0,0,0,217390
"940",18,1,20,13,0.2,67,1,"gain_frame","f","safe",1288,0,0,0,223705
"941",18,1,21,-31,0.95,62,0.53,"loss_frame","j","risky",1085,0,1,0,229818
"942",18,1,22,31,0.95,62,0.53,"gain_frame","j","risky",1100,0,1,0,235942
"943",18,1,23,-67,0.2,84,1,"loss_frame","f","safe",1681,0,0,0,242647
"944",18,1,24,24,0.4,59,1,"gain_frame","f","safe",1158,0,0,0,248834
"945",18,1,25,80,0.8,100,1,"gain_frame","f","safe",1469,0,0,0,255330
"946",18,1,26,-44,0.05,87,9.94,"loss_frame","f","safe",1125,0,1,0,261483
"947",18,1,27,-46,0.95,92,0.52,"loss_frame","j","risky",806,0,1,0,267317
"948",18,1,28,44,0.95,88,0.53,"gain_frame","j","risky",701,0,1,0,273047
"949",18,1,29,-54,0.2,67,1,"loss_frame","f","safe",970,0,0,0,279043
"950",18,1,30,62,0.8,78,1,"gain_frame","f","safe",1187,0,0,0,285254
"951",18,1,31,30,0.4,75,1,"gain_frame","f","safe",1322,0,0,0,291605
"952",18,1,32,34,0.4,86,1,"gain_frame","f","safe",973,0,0,0,297602
"953",18,1,33,31,0.6,51,1,"gain_frame","f","safe",1053,0,0,0,303681
"954",18,1,34,-32,0.05,64,10.05,"loss_frame","j","risky",1474,0,1,0,310181
"955",18,1,35,-34,0.6,86,1,"loss_frame","f","safe",1332,0,0,0,316542
"956",18,1,36,-46,0.4,76,1,"loss_frame","j","risky",1407,0,0,0,322975
"957",18,1,37,-12,0.8,58,1,"loss_frame","j","risky",1552,0,0,0,329551
"958",18,1,38,-72,0.2,90,1,"loss_frame","f","safe",975,0,0,0,335554
"959",18,1,39,-50,0.4,83,1,"loss_frame","f","safe",1328,0,0,0,341910
"960",18,1,40,-17,0.8,83,1,"loss_frame","f","safe",1090,0,0,0,348028
"961",18,1,41,-31,0.6,78,1,"loss_frame","f","safe",364,0,0,0,353421
"962",18,1,42,50,0.05,99,10.05,"gain_frame","f","safe",1017,0,1,0,359464
"963",18,1,43,-26,0.6,66,1,"loss_frame","f","safe",465,0,0,0,364955
"964",18,1,44,-32,0.95,65,0.53,"loss_frame","f","safe",387,0,1,0,370371
"965",18,1,45,-20,0.8,99,1,"loss_frame","f","safe",1572,0,0,0,376972
"966",18,1,46,43,0.05,85,10.11,"gain_frame","f","safe",341,0,1,0,382335
"967",18,1,47,52,0.6,87,1,"gain_frame","f","safe",307,0,0,0,387670
"968",18,1,48,-44,0.4,73,1,"loss_frame","f","safe",368,0,0,0,393063
"969",18,1,49,18,0.2,90,1,"gain_frame","f","safe",437,0,0,0,398525
"970",18,1,50,16,0.2,79,1,"gain_frame","f","safe",605,0,0,0,404156
"971",18,1,51,33,0.6,55,1,"gain_frame","f","safe",690,0,0,0,409874
"972",18,1,52,-59,0.2,74,1,"loss_frame","f","safe",730,0,0,0,415631
"973",19,0,1,14,0.2,71,1,"gain_frame","j","risky",894,1,0,0,489876
"974",19,0,2,-20,0.8,97,1,"loss_frame","j","risky",498,1,0,0,495454
"975",19,1,1,-74,0.2,93,1,"loss_frame","f","safe",1109,0,0,0,534061
"976",19,1,2,36,0.4,89,1,"gain_frame","f","safe",1805,0,0,0,540948
"977",19,1,3,-34,0.95,68,0.53,"loss_frame","j","risky",826,0,1,0,546847
"978",19,1,4,-27,0.6,68,1,"loss_frame","j","risky",679,0,0,0,552619
"979",19,1,5,-16,0.8,84,1,"loss_frame","j","risky",677,0,0,0,558345
"980",19,1,6,44,0.8,55,1,"gain_frame","j","risky",647,0,0,0,564057
"981",19,1,7,-37,0.4,62,1,"loss_frame","f","safe",993,0,0,0,570148
"982",19,1,8,-39,0.6,97,1,"loss_frame","j","risky",502,0,0,0,575727
"983",19,1,9,-66,0.2,83,1,"loss_frame","f","safe",913,0,0,0,581707
"984",19,1,10,42,0.95,83,0.53,"gain_frame","j","risky",468,0,1,0,587232
"985",19,1,11,54,0.8,67,1,"gain_frame","j","risky",1066,0,0,0,593366
"986",19,1,12,39,0.6,65,1,"gain_frame","j","risky",574,0,0,0,598992
"987",19,1,13,49,0.05,98,9.95,"gain_frame","f","safe",757,0,1,0,604808
"988",19,1,14,-40,0.4,67,1,"loss_frame","f","safe",919,0,0,1,610802
"989",19,1,15,-44,0.2,55,1,"loss_frame","f","safe",708,0,0,0,616575
"990",19,1,16,-27,0.95,55,0.53,"loss_frame","j","risky",565,0,1,0,622184
"991",19,1,17,-12,0.8,60,1,"loss_frame","j","risky",435,0,0,0,627658
"992",19,1,18,-37,0.4,62,1,"loss_frame","f","safe",810,0,0,0,633551
"993",19,1,19,12,0.2,58,1,"gain_frame","f","safe",791,0,0,0,639400
"994",19,1,20,-67,0.2,84,1,"loss_frame","f","safe",806,0,0,0,645290
"995",19,1,21,-43,0.95,85,0.52,"loss_frame","j","risky",739,0,1,0,651119
"996",19,1,22,30,0.95,60,0.53,"gain_frame","j","risky",591,0,1,0,656758
"997",19,1,23,-13,0.8,67,1,"loss_frame","j","risky",564,0,0,0,662405
"998",19,1,24,15,0.2,74,1,"gain_frame","f","safe",850,0,0,0,668323
"999",19,1,25,78,0.8,98,1,"gain_frame","j","risky",591,0,0,0,673968
"1000",19,1,26,-34,0.05,68,10.01,"loss_frame","f","safe",735,0,1,0,679766
"1001",19,1,27,-19,0.8,95,1,"loss_frame","j","risky",481,0,0,0,685326
"1002",19,1,28,-36,0.6,90,1,"loss_frame","j","risky",530,0,0,0,690940
"1003",19,1,29,55,0.8,69,1,"gain_frame","j","risky",516,0,0,0,696516
"1004",19,1,30,49,0.6,82,1,"gain_frame","j","risky",551,0,0,0,702156
"1005",19,1,31,-11,0.8,57,1,"loss_frame","j","risky",521,0,0,0,707756
"1006",19,1,32,43,0.05,85,10.09,"gain_frame","f","safe",785,0,1,0,713636
"1007",19,1,33,-53,0.4,89,1,"loss_frame","f","safe",1026,0,0,0,719738
"1008",19,1,34,47,0.05,94,10.03,"gain_frame","f","safe",847,0,1,0,725657
"1009",19,1,35,31,0.6,52,1,"gain_frame","j","risky",768,0,0,0,731479
"1010",19,1,36,25,0.4,64,1,"gain_frame","f","safe",1346,0,0,0,737887
"1011",19,1,37,-31,0.05,61,9.88,"loss_frame","f","safe",980,0,1,0,743938
"1012",19,1,38,-47,0.05,93,9.91,"loss_frame","f","safe",1090,0,1,0,750096
"1013",19,1,39,40,0.4,100,1,"gain_frame","f","safe",1611,0,0,0,756757
"1014",19,1,40,-37,0.4,61,1,"loss_frame","f","safe",1394,0,0,0,763237
"1015",19,1,41,35,0.6,58,1,"gain_frame","j","risky",790,0,0,0,769127
"1016",19,1,42,13,0.2,66,1,"gain_frame","f","safe",956,0,0,0,775173
"1017",19,1,43,54,0.6,91,1,"gain_frame","j","risky",740,0,0,0,780969
"1018",19,1,44,-62,0.2,78,1,"loss_frame","f","safe",967,0,0,0,787004
"1019",19,1,45,18,0.2,88,1,"gain_frame","f","safe",1246,0,0,0,793338
"1020",19,1,46,38,0.4,94,1,"gain_frame","f","safe",1059,0,0,0,799432
"1021",19,1,47,-39,0.6,98,1,"loss_frame","j","risky",678,0,0,0,805190
"1022",19,1,48,47,0.95,95,0.52,"gain_frame","j","risky",683,0,1,0,810926
"1023",19,1,49,32,0.4,80,1,"gain_frame","f","safe",946,0,0,0,816924
"1024",19,1,50,-33,0.6,82,1,"loss_frame","j","risky",613,0,0,0,822629
"1025",19,1,51,50,0.8,63,1,"gain_frame","j","risky",524,0,0,0,828249
"1026",19,1,52,16,0.2,79,1,"gain_frame","f","safe",756,0,0,0,834102
"1027",20,0,1,32,0.6,54,1,"gain_frame","f","safe",2461,1,0,0,1240734
"1028",20,0,2,-48,0.2,60,1,"loss_frame","f","safe",1246,1,0,0,1246982
"1029",20,1,1,36,0.05,73,9.93,"gain_frame","f","safe",833,0,1,1,1274189
"1030",20,1,2,37,0.95,73,0.53,"gain_frame","j","risky",1229,0,1,0,1280422
"1031",20,1,3,-44,0.95,88,0.53,"loss_frame","j","risky",927,0,1,0,1286354
"1032",20,1,4,26,0.4,66,1,"gain_frame","f","safe",714,0,0,0,1292073
"1033",20,1,5,44,0.6,73,1,"gain_frame","f","safe",936,0,0,0,1298012
"1034",20,1,6,30,0.05,60,9.95,"gain_frame","f","safe",825,0,1,0,1303840
"1035",20,1,7,11,0.2,53,1,"gain_frame","f","safe",1000,0,0,0,1309845
"1036",20,1,8,29,0.4,73,1,"gain_frame","f","safe",690,0,0,0,1315538
"1037",20,1,9,19,0.2,97,1,"gain_frame","f","safe",712,0,0,0,1321256
"1038",20,1,10,45,0.6,76,1,"gain_frame","f","safe",1327,0,0,0,1327586
"1039",20,1,11,10,0.2,51,1,"gain_frame","f","safe",907,0,0,0,1333497
"1040",20,1,12,-50,0.2,63,1,"loss_frame","f","safe",630,0,0,0,1339132
"1041",20,1,13,-56,0.2,70,1,"loss_frame","f","safe",905,0,0,0,1345040
"1042",20,1,14,-24,0.6,60,1,"loss_frame","j","risky",1655,0,0,0,1351700
"1043",20,1,15,-56,0.2,70,1,"loss_frame","f","safe",673,0,0,0,1357377
"1044",20,1,16,24,0.4,60,1,"gain_frame","f","safe",1125,0,0,0,1363504
"1045",20,1,17,25,0.05,50,9.98,"gain_frame","f","safe",681,0,1,0,1369187
"1046",20,1,18,-34,0.05,68,9.99,"loss_frame","f","safe",712,0,1,0,1374904
"1047",20,1,19,28,0.4,71,1,"gain_frame","f","safe",721,0,0,0,1380629
"1048",20,1,20,36,0.95,72,0.52,"gain_frame","j","risky",541,0,1,0,1386175
"1049",20,1,21,38,0.95,76,0.52,"gain_frame","j","risky",614,0,1,0,1391793
"1050",20,1,22,55,0.8,69,1,"gain_frame","j","risky",658,0,0,0,1397454
"1051",20,1,23,68,0.8,84,1,"gain_frame","j","risky",905,0,0,0,1403363
"1052",20,1,24,-49,0.4,81,1,"loss_frame","f","safe",1025,0,0,0,1409391
"1053",20,1,25,-32,0.05,65,10.09,"loss_frame","f","safe",673,0,1,0,1415069
"1054",20,1,26,73,0.8,91,1,"gain_frame","j","risky",645,0,0,0,1420718
"1055",20,1,27,40,0.6,67,1,"gain_frame","f","safe",1221,0,0,0,1426942
"1056",20,1,28,-31,0.6,77,1,"loss_frame","f","safe",1438,0,0,0,1433384
"1057",20,1,29,-23,0.6,59,1,"loss_frame","f","safe",1468,0,0,0,1439855
"1058",20,1,30,-17,0.8,84,1,"loss_frame","j","risky",632,0,0,0,1445491
"1059",20,1,31,19,0.2,93,1,"gain_frame","f","safe",785,0,0,0,1451281
"1060",20,1,32,39,0.4,97,1,"gain_frame","f","safe",766,0,0,0,1457051
"1061",20,1,33,-53,0.4,88,1,"loss_frame","f","safe",618,0,0,0,1462675
"1062",20,1,34,65,0.8,81,1,"gain_frame","j","risky",860,0,0,0,1468537
"1063",20,1,35,-44,0.4,73,1,"loss_frame","f","safe",595,0,0,0,1474137
"1064",20,1,36,-35,0.6,88,1,"loss_frame","j","risky",1286,0,0,0,1480430
"1065",20,1,37,-43,0.95,87,0.53,"loss_frame","j","risky",814,0,1,0,1486249
"1066",20,1,38,-17,0.8,82,1,"loss_frame","j","risky",1271,0,0,0,1492523
"1067",20,1,39,-55,0.4,91,1,"loss_frame","f","safe",636,0,0,0,1498163
"1068",20,1,40,-19,0.8,92,1,"loss_frame","j","risky",670,0,0,0,1503838
"1069",20,1,41,-15,0.8,78,1,"loss_frame","j","risky",606,0,0,0,1509448
"1070",20,1,42,-32,0.05,65,10.09,"loss_frame","f","safe",659,0,1,0,1515110
"1071",20,1,43,-25,0.95,50,0.52,"loss_frame","j","risky",766,0,1,0,1520879
"1072",20,1,44,33,0.6,56,1,"gain_frame","j","risky",1046,0,0,0,1526931
"1073",20,1,45,-10,0.8,51,1,"loss_frame","j","risky",630,0,0,0,1532567
"1074",20,1,46,-71,0.2,89,1,"loss_frame","f","safe",674,0,0,0,1538245
"1075",20,1,47,19,0.2,94,1,"gain_frame","f","safe",656,0,0,0,1543906
"1076",20,1,48,-29,0.6,72,1,"loss_frame","j","risky",1125,0,0,0,1550037
"1077",20,1,49,64,0.8,81,1,"gain_frame","j","risky",784,0,0,0,1555824
"1078",20,1,50,30,0.6,50,1,"gain_frame","j","risky",1164,0,0,0,1561992
"1079",20,1,51,-35,0.4,58,1,"loss_frame","f","safe",591,0,0,0,1567586
"1080",20,1,52,-64,0.2,80,1,"loss_frame","f","safe",759,0,0,0,1573348
"1081",21,0,1,41,0.6,68,1,"gain_frame","j","risky",3068,1,0,0,263013
"1082",21,0,2,-49,0.4,81,1,"loss_frame","j","risky",3284,1,0,0,271309
"1083",21,1,1,46,0.95,92,0.52,"gain_frame","no_choice","no_choice",-1,0,1,0,311360
"1084",21,1,2,-58,0.2,72,1,"loss_frame","f","safe",803,0,0,0,317174
"1085",21,1,3,11,0.2,55,1,"gain_frame","f","safe",2155,0,0,0,324343
"1086",21,1,4,-72,0.2,90,1,"loss_frame","j","risky",2054,0,0,0,331408
"1087",21,1,5,26,0.95,52,0.53,"gain_frame","j","risky",2251,0,1,0,338671
"1088",21,1,6,-34,0.4,57,1,"loss_frame","j","risky",1672,0,0,0,345356
"1089",21,1,7,-20,0.8,99,1,"loss_frame","j","risky",1254,0,0,0,351622
"1090",21,1,8,-17,0.8,86,1,"loss_frame","j","risky",988,0,0,0,357622
"1091",21,1,9,-66,0.2,83,1,"loss_frame","f","safe",1757,0,0,0,364389
"1092",21,1,10,48,0.05,96,10.04,"gain_frame","f","safe",1794,0,1,0,371194
"1093",21,1,11,44,0.8,56,1,"gain_frame","f","safe",894,0,0,0,377097
"1094",21,1,12,-55,0.4,91,1,"loss_frame","j","risky",1719,0,0,0,383829
"1095",21,1,13,57,0.6,95,1,"gain_frame","j","risky",2174,0,0,0,391014
"1096",21,1,14,-39,0.6,97,1,"loss_frame","j","risky",1103,0,0,0,397128
"1097",21,1,15,-70,0.2,87,1,"loss_frame","j","risky",935,0,0,0,403072
"1098",21,1,16,50,0.6,84,1,"gain_frame","j","risky",1036,0,0,0,409119
"1099",21,1,17,37,0.6,61,1,"gain_frame","j","risky",1465,0,0,0,415596
"1100",21,1,18,-53,0.4,89,1,"loss_frame","j","risky",1324,0,0,0,421936
"1101",21,1,19,-28,0.05,56,10.06,"loss_frame","f","safe",2196,0,1,0,429144
"1102",21,1,20,-31,0.95,61,0.52,"loss_frame","j","risky",1684,0,1,0,435839
"1103",21,1,21,-50,0.4,84,1,"loss_frame","j","risky",1041,0,0,0,441890
"1104",21,1,22,-22,0.6,55,1,"loss_frame","j","risky",1625,0,0,0,448525
"1105",21,1,23,52,0.8,65,1,"gain_frame","f","safe",1255,0,0,0,454790
"1106",21,1,24,57,0.8,71,1,"gain_frame","j","risky",1059,0,0,0,460860
"1107",21,1,25,-15,0.8,77,1,"loss_frame","j","risky",1305,0,0,0,467177
"1108",21,1,26,-48,0.95,96,0.53,"loss_frame","j","risky",1318,0,1,0,473507
"1109",21,1,27,-30,0.6,75,1,"loss_frame","j","risky",1164,0,0,0,479680
"1110",21,1,28,29,0.4,72,1,"gain_frame","f","safe",1476,0,0,0,486166
"1111",21,1,29,-50,0.95,100,0.53,"loss_frame","j","risky",1062,0,1,0,492240
"1112",21,1,30,35,0.05,70,10.03,"gain_frame","f","safe",1346,0,1,0,498597
"1113",21,1,31,-17,0.8,84,1,"loss_frame","j","risky",1205,0,0,0,504812
"1114",21,1,32,-45,0.2,56,1,"loss_frame","f","safe",1372,0,0,0,511195
"1115",21,1,33,38,0.4,96,1,"gain_frame","f","safe",1868,0,0,0,518073
"1116",21,1,34,18,0.2,92,1,"gain_frame","f","safe",1144,0,0,0,524228
"1117",21,1,35,44,0.8,55,1,"gain_frame","j","risky",1686,0,0,0,530929
"1118",21,1,36,-34,0.05,68,9.93,"loss_frame","f","safe",968,0,1,0,536908
"1119",21,1,37,23,0.4,57,1,"gain_frame","f","safe",998,0,0,0,542918
"1120",21,1,38,45,0.05,90,9.99,"gain_frame","f","safe",938,0,1,0,548866
"1121",21,1,39,14,0.2,70,1,"gain_frame","f","safe",883,0,0,0,554760
"1122",21,1,40,60,0.6,100,1,"gain_frame","j","risky",1092,0,0,0,560862
"1123",21,1,41,11,0.2,56,1,"gain_frame","f","safe",1447,0,0,0,567321
"1124",21,1,42,-60,0.4,99,1,"loss_frame","f","safe",1190,0,0,0,573520
"1125",21,1,43,-15,0.8,75,1,"loss_frame","j","risky",1042,0,0,0,579574
"1126",21,1,44,-29,0.05,59,10.08,"loss_frame","f","safe",1269,0,1,0,585854
"1127",21,1,45,12,0.2,62,1,"gain_frame","f","safe",960,0,0,0,591824
"1128",21,1,46,-23,0.6,58,1,"loss_frame","j","risky",907,0,0,0,597741
"1129",21,1,47,29,0.4,71,1,"gain_frame","f","safe",967,0,0,0,603719
"1130",21,1,48,29,0.95,58,0.53,"gain_frame","f","safe",727,0,1,0,609453
"1131",21,1,49,-38,0.6,94,1,"loss_frame","j","risky",1377,0,0,1,615843
"1132",21,1,50,52,0.8,65,1,"gain_frame","j","risky",773,0,0,0,621626
"1133",21,1,51,25,0.4,63,1,"gain_frame","j","risky",890,0,0,0,627527
"1134",21,1,52,53,0.6,88,1,"gain_frame","j","risky",1435,0,0,0,633974
"1135",22,0,1,58,0.6,96,1,"gain_frame","f","safe",14606,1,0,0,140638
"1136",22,0,2,-10,0.8,53,1,"loss_frame","j","risky",3882,1,0,0,149547
"1137",22,1,1,44,0.95,87,0.53,"gain_frame","j","risky",1856,0,1,0,174596
"1138",22,1,2,28,0.4,71,1,"gain_frame","f","safe",2695,0,0,0,182324
"1139",22,1,3,-58,0.4,97,1,"loss_frame","j","risky",2348,0,0,0,189702
"1140",22,1,4,13,0.2,66,1,"gain_frame","f","safe",2213,0,0,0,196939
"1141",22,1,5,36,0.4,90,1,"gain_frame","j","risky",2251,0,0,0,204214
"1142",22,1,6,49,0.6,81,1,"gain_frame","j","risky",821,0,0,0,210067
"1143",22,1,7,55,0.8,69,1,"gain_frame","j","risky",993,0,0,0,216093
"1144",22,1,8,-66,0.2,83,1,"loss_frame","f","safe",881,0,0,0,222004
"1145",22,1,9,42,0.8,52,1,"gain_frame","f","safe",2061,0,0,0,229091
"1146",22,1,10,-20,0.6,50,1,"loss_frame","j","risky",2383,0,0,0,236506
"1147",22,1,11,-36,0.4,61,1,"loss_frame","j","risky",2158,0,0,0,243690
"1148",22,1,12,-27,0.95,54,0.52,"loss_frame","j","risky",1271,0,1,1,249994
"1149",22,1,13,48,0.8,59,1,"gain_frame","f","safe",1618,0,0,0,256649
"1150",22,1,14,-35,0.05,69,9.88,"loss_frame","f","safe",2137,0,1,0,263820
"1151",22,1,15,-63,0.2,79,1,"loss_frame","j","risky",2410,0,0,0,271262
"1152",22,1,16,-24,0.6,61,1,"loss_frame","j","risky",1584,0,0,0,277889
"1153",22,1,17,-20,0.8,98,1,"loss_frame","j","risky",1202,0,0,0,284119
"1154",22,1,18,-42,0.4,71,1,"loss_frame","f","safe",1836,0,0,0,290985
"1155",22,1,19,54,0.8,67,1,"gain_frame","f","safe",2304,0,0,0,298314
"1156",22,1,20,-34,0.4,57,1,"loss_frame","j","risky",2147,0,0,0,305488
"1157",22,1,21,-71,0.2,89,1,"loss_frame","j","risky",2440,0,0,0,312958
"1158",22,1,22,41,0.6,69,1,"gain_frame","j","risky",2239,0,0,0,320226
"1159",22,1,23,52,0.6,86,1,"gain_frame","f","safe",1617,0,0,0,326865
"1160",22,1,24,-40,0.95,80,0.53,"loss_frame","j","risky",1349,0,1,0,333246
"1161",22,1,25,-47,0.05,93,9.92,"loss_frame","f","safe",1736,0,1,0,340011
"1162",22,1,26,-24,0.6,59,1,"loss_frame","j","risky",1641,0,0,0,346682
"1163",22,1,27,30,0.6,50,1,"gain_frame","j","risky",2454,0,0,0,354171
"1164",22,1,28,13,0.2,63,1,"gain_frame","f","safe",1718,0,0,0,360912
"1165",22,1,29,-39,0.6,97,1,"loss_frame","f","safe",2235,0,0,0,368178
"1166",22,1,30,39,0.4,99,1,"gain_frame","j","risky",2152,0,0,0,375348
"1167",22,1,31,14,0.2,72,1,"gain_frame","f","safe",3228,0,0,0,383605
"1168",22,1,32,47,0.95,94,0.53,"gain_frame","j","risky",1379,0,1,0,390011
"1169",22,1,33,-15,0.8,72,1,"loss_frame","f","safe",3863,0,0,0,398907
"1170",22,1,34,17,0.2,86,1,"gain_frame","f","safe",2345,0,0,0,406277
"1171",22,1,35,28,0.95,56,0.52,"gain_frame","j","risky",1350,0,1,0,412655
"1172",22,1,36,47,0.05,93,10.09,"gain_frame","f","safe",1270,0,1,0,418949
"1173",22,1,37,66,0.8,83,1,"gain_frame","f","safe",2273,0,0,0,426255
"1174",22,1,38,-15,0.8,76,1,"loss_frame","j","risky",2135,0,0,0,433422
"1175",22,1,39,50,0.05,99,10.1,"gain_frame","f","safe",1468,0,1,0,439921
"1176",22,1,40,20,0.2,99,1,"gain_frame","f","safe",2054,0,0,0,447012
"1177",22,1,41,-14,0.8,70,1,"loss_frame","j","risky",1257,0,0,0,453297
"1178",22,1,42,-39,0.95,78,0.53,"loss_frame","j","risky",1379,0,1,0,459700
"1179",22,1,43,21,0.4,52,1,"gain_frame","f","safe",1852,0,0,0,466595
"1180",22,1,44,-54,0.4,91,1,"loss_frame","f","safe",2482,0,0,0,474100
"1181",22,1,45,-63,0.2,79,1,"loss_frame","j","risky",2284,0,0,0,481413
"1182",22,1,46,-68,0.2,85,1,"loss_frame","f","safe",2495,0,0,0,488931
"1183",22,1,47,-46,0.05,93,10.08,"loss_frame","f","safe",1382,0,1,0,495345
"1184",22,1,48,-39,0.6,98,1,"loss_frame","j","risky",2039,0,0,0,502415
"1185",22,1,49,35,0.6,58,1,"gain_frame","f","safe",2002,0,0,0,509445
"1186",22,1,50,33,0.4,82,1,"gain_frame","f","safe",2236,0,0,0,516711
"1187",22,1,51,-15,0.8,73,1,"loss_frame","j","risky",1105,0,0,0,522848
"1188",22,1,52,43,0.05,86,10.05,"gain_frame","f","safe",1172,0,1,0,529043
"1189",23,0,1,11,0.2,55,1,"gain_frame","f","safe",2202,1,0,0,72030
"1190",23,0,2,-33,0.6,82,1,"loss_frame","j","risky",1004,1,0,0,78099
"1191",23,1,1,33,0.4,83,1,"gain_frame","j","risky",1154,0,0,0,106566
"1192",23,1,2,39,0.4,99,1,"gain_frame","j","risky",964,0,0,0,112567
"1193",23,1,3,-49,0.95,99,0.53,"loss_frame","j","risky",847,0,1,1,118469
"1194",23,1,4,25,0.05,50,9.94,"gain_frame","f","safe",1304,0,1,0,124828
"1195",23,1,5,53,0.6,88,1,"gain_frame","f","safe",2344,0,0,0,132230
"1196",23,1,6,-60,0.2,75,1,"loss_frame","j","risky",2681,0,0,0,139950
"1197",23,1,7,-37,0.95,74,0.53,"loss_frame","j","risky",1103,0,1,0,146110
"1198",23,1,8,-39,0.4,64,1,"loss_frame","j","risky",1761,0,0,0,152905
"1199",23,1,9,-37,0.6,91,1,"loss_frame","j","risky",914,0,0,0,158886
"1200",23,1,10,-22,0.6,55,1,"loss_frame","j","risky",1316,0,0,0,165256
"1201",23,1,11,-35,0.4,58,1,"loss_frame","j","risky",1310,0,0,0,171599
"1202",23,1,12,14,0.2,71,1,"gain_frame","j","risky",1763,0,0,0,178410
"1203",23,1,13,-45,0.4,74,1,"loss_frame","j","risky",1189,0,0,0,184643
"1204",23,1,14,66,0.8,83,1,"gain_frame","j","risky",1623,0,0,0,191298
"1205",23,1,15,34,0.4,84,1,"gain_frame","j","risky",1472,0,0,0,197818
"1206",23,1,16,-29,0.95,58,0.52,"loss_frame","j","risky",667,0,1,0,203520
"1207",23,1,17,62,0.8,78,1,"gain_frame","f","safe",1145,0,0,0,209683
"1208",23,1,18,17,0.2,87,1,"gain_frame","j","risky",1996,0,0,0,216739
"1209",23,1,19,16,0.2,82,1,"gain_frame","j","risky",1030,0,0,0,222811
"1210",23,1,20,-30,0.05,59,9.88,"loss_frame","f","safe",1740,0,1,0,229606
"1211",23,1,21,45,0.95,91,0.52,"gain_frame","j","risky",573,0,1,0,235235
"1212",23,1,22,53,0.8,66,1,"gain_frame","j","risky",1394,0,0,0,241658
"1213",23,1,23,-26,0.6,64,1,"loss_frame","j","risky",867,0,0,0,247582
"1214",23,1,24,-44,0.05,88,10,"loss_frame","f","safe",1729,0,1,0,254359
"1215",23,1,25,-31,0.4,52,1,"loss_frame","j","risky",1271,0,0,0,260692
"1216",23,1,26,22,0.4,54,1,"gain_frame","j","risky",1173,0,0,0,266896
"1217",23,1,27,-46,0.2,57,1,"loss_frame","f","safe",1097,0,0,0,273065
"1218",23,1,28,-18,0.8,90,1,"loss_frame","j","risky",609,0,0,0,278750
"1219",23,1,29,-21,0.6,54,1,"loss_frame","j","risky",573,0,0,0,284377
"1220",23,1,30,47,0.6,79,1,"gain_frame","j","risky",748,0,0,0,290164
"1221",23,1,31,-46,0.05,92,10.05,"loss_frame","f","safe",694,0,1,0,295910
"1222",23,1,32,30,0.4,76,1,"gain_frame","f","safe",1781,0,0,0,302732
"1223",23,1,33,-45,0.2,56,1,"loss_frame","j","risky",980,0,0,0,308765
"1224",23,1,34,-56,0.2,70,1,"loss_frame","j","risky",1478,0,0,0,315284
"1225",23,1,35,-51,0.2,64,1,"loss_frame","f","safe",1259,0,0,0,321577
"1226",23,1,36,16,0.2,79,1,"gain_frame","f","safe",1356,0,0,0,327992
"1227",23,1,37,16,0.2,80,1,"gain_frame","f","safe",890,0,0,0,333951
"1228",23,1,38,63,0.8,79,1,"gain_frame","j","risky",507,0,0,0,339518
"1229",23,1,39,-11,0.8,56,1,"loss_frame","j","risky",515,0,0,0,345091
"1230",23,1,40,-13,0.8,62,1,"loss_frame","j","risky",581,0,0,0,350717
"1231",23,1,41,-50,0.4,83,1,"loss_frame","f","safe",2348,0,0,0,358134
"1232",23,1,42,-29,0.6,73,1,"loss_frame","j","risky",820,0,0,0,364011
"1233",23,1,43,31,0.95,62,0.52,"gain_frame","j","risky",858,0,1,0,369903
"1234",23,1,44,60,0.8,76,1,"gain_frame","j","risky",1040,0,0,0,375973
"1235",23,1,45,-16,0.8,82,1,"loss_frame","j","risky",897,0,0,0,381914
"1236",23,1,46,30,0.95,60,0.53,"gain_frame","j","risky",542,0,1,0,387506
"1237",23,1,47,50,0.6,83,1,"gain_frame","j","risky",557,0,0,0,393119
"1238",23,1,48,31,0.05,61,10.13,"gain_frame","f","safe",1135,0,1,0,399315
"1239",23,1,49,30,0.6,50,1,"gain_frame","f","safe",1886,0,0,0,406238
"1240",23,1,50,-14,0.8,71,1,"loss_frame","f","safe",1210,0,0,0,412487
"1241",23,1,51,48,0.05,96,9.98,"gain_frame","f","safe",1290,0,1,0,418805
"1242",23,1,52,56,0.6,94,1,"gain_frame","j","risky",1276,0,0,0,425122
"1243",24,0,1,58,0.8,73,1,"gain_frame","f","safe",4649,1,0,0,88077
"1244",24,0,2,-18,0.8,87,1,"loss_frame","j","risky",3884,1,0,0,96972
"1245",24,1,1,27,0.05,54,9.97,"gain_frame","f","safe",2734,0,1,0,115091
"1246",24,1,2,33,0.95,66,0.53,"gain_frame","j","risky",2684,0,1,0,122804
"1247",24,1,3,-36,0.4,60,1,"loss_frame","no_choice","no_choice",-1,0,0,0,131849
"1248",24,1,4,-18,0.8,91,1,"loss_frame","j","risky",2154,0,0,0,139017
"1249",24,1,5,-17,0.8,87,1,"loss_frame","j","risky",981,0,0,0,145020
"1250",24,1,6,-64,0.2,80,1,"loss_frame","no_choice","no_choice",-1,0,0,0,154039
"1251",24,1,7,31,0.4,78,1,"gain_frame","f","safe",2246,0,0,0,161308
"1252",24,1,8,-55,0.4,92,1,"loss_frame","j","risky",2464,0,0,0,168822
"1253",24,1,9,-25,0.6,62,1,"loss_frame","j","risky",1786,0,0,1,175640
"1254",24,1,10,-46,0.2,58,1,"loss_frame","j","risky",3242,0,0,0,183901
"1255",24,1,11,-26,0.05,53,10.11,"loss_frame","f","safe",1325,0,1,0,190244
"1256",24,1,12,-21,0.6,52,1,"loss_frame","j","risky",1548,0,0,0,196830
"1257",24,1,13,42,0.8,52,1,"gain_frame","f","safe",1205,0,0,0,203083
"1258",24,1,14,47,0.8,58,1,"gain_frame","f","safe",1471,0,0,0,209591
"1259",24,1,15,-50,0.2,62,1,"loss_frame","j","risky",2886,0,0,0,217501
"1260",24,1,16,34,0.4,86,1,"gain_frame","f","safe",1126,0,0,0,223653
"1261",24,1,17,-68,0.2,85,1,"loss_frame","j","risky",3192,0,0,0,231874
"1262",24,1,18,35,0.6,58,1,"gain_frame","f","safe",493,0,0,0,237396
"1263",24,1,19,35,0.05,70,10.06,"gain_frame","f","safe",1156,0,1,0,243564
"1264",24,1,20,-54,0.4,90,1,"loss_frame","j","risky",3667,0,0,0,252260
"1265",24,1,21,-39,0.95,78,0.53,"loss_frame","j","risky",1397,0,1,0,258681
"1266",24,1,22,-23,0.6,58,1,"loss_frame","j","risky",1365,0,0,0,265077
"1267",24,1,23,-38,0.6,96,1,"loss_frame","j","risky",1511,0,0,0,271632
"1268",24,1,24,17,0.2,83,1,"gain_frame","f","safe",1765,0,0,0,278426
"1269",24,1,25,57,0.8,72,1,"gain_frame","f","safe",1252,0,0,0,284710
"1270",24,1,26,12,0.2,60,1,"gain_frame","f","safe",2270,0,0,0,292019
"1271",24,1,27,47,0.6,78,1,"gain_frame","f","safe",1333,0,0,0,298372
"1272",24,1,28,-38,0.05,76,10.06,"loss_frame","f","safe",2591,0,1,0,306003
"1273",24,1,29,18,0.2,90,1,"gain_frame","f","safe",1269,0,0,0,312312
"1274",24,1,30,20,0.2,99,1,"gain_frame","f","safe",900,0,0,0,318241
"1275",24,1,31,-19,0.8,99,1,"loss_frame","j","risky",1034,0,0,0,324302
"1276",24,1,32,64,0.8,80,1,"gain_frame","f","safe",1342,0,0,0,330653
"1277",24,1,33,-38,0.05,76,9.95,"loss_frame","f","safe",3119,0,1,0,338805
"1278",24,1,34,56,0.6,93,1,"gain_frame","f","safe",1694,0,0,0,345537
"1279",24,1,35,-41,0.95,83,0.53,"loss_frame","j","risky",1210,0,1,0,351773
"1280",24,1,36,-22,0.6,55,1,"loss_frame","j","risky",1212,0,0,0,358027
"1281",24,1,37,-47,0.95,94,0.53,"loss_frame","j","risky",1106,0,1,0,364160
"1282",24,1,38,-13,0.8,65,1,"loss_frame","j","risky",1170,0,0,0,370350
"1283",24,1,39,-66,0.2,83,1,"loss_frame","j","risky",2626,0,0,0,377999
"1284",24,1,40,54,0.6,89,1,"gain_frame","f","safe",955,0,0,0,383992
"1285",24,1,41,35,0.4,87,1,"gain_frame","f","safe",1046,0,0,0,390052
"1286",24,1,42,42,0.95,85,0.52,"gain_frame","f","safe",2268,0,1,0,397341
"1287",24,1,43,27,0.95,53,0.53,"gain_frame","j","risky",2486,0,1,0,404858
"1288",24,1,44,28,0.05,56,10,"gain_frame","f","safe",1506,0,1,0,411372
"1289",24,1,45,30,0.4,76,1,"gain_frame","f","safe",1646,0,0,0,418052
"1290",24,1,46,18,0.2,88,1,"gain_frame","f","safe",2034,0,0,0,425102
"1291",24,1,47,31,0.4,78,1,"gain_frame","f","safe",1835,0,0,0,431964
"1292",24,1,48,-10,0.8,51,1,"loss_frame","j","risky",1312,0,0,0,438310
"1293",24,1,49,-34,0.4,57,1,"loss_frame","j","risky",2976,0,0,0,446327
"1294",24,1,50,-32,0.4,53,1,"loss_frame","j","risky",2076,0,0,0,453422
"1295",24,1,51,61,0.8,76,1,"gain_frame","f","safe",1076,0,0,0,459534
"1296",24,1,52,35,0.6,58,1,"gain_frame","no_choice","no_choice",-1,0,0,0,468569
"1297",25,0,1,25,0.4,62,1,"gain_frame","f","safe",997,1,0,0,294315
"1298",25,0,2,-35,0.4,59,1,"loss_frame","f","safe",592,1,0,0,299931
"1299",25,1,1,-38,0.95,77,0.53,"loss_frame","j","risky",1160,0,1,0,324295
"1300",25,1,2,-35,0.4,58,1,"loss_frame","f","safe",1048,0,0,0,330365
"1301",25,1,3,-24,0.6,60,1,"loss_frame","j","risky",962,0,0,0,336350
"1302",25,1,4,43,0.8,54,1,"gain_frame","j","risky",975,0,0,0,342348
"1303",25,1,5,20,0.2,99,1,"gain_frame","f","safe",969,0,0,0,348333
"1304",25,1,6,42,0.6,70,1,"gain_frame","j","risky",955,0,0,0,354311
"1305",25,1,7,-36,0.05,71,9.92,"loss_frame","f","safe",1256,0,1,0,360592
"1306",25,1,8,48,0.95,96,0.53,"gain_frame","j","risky",912,0,1,0,366520
"1307",25,1,9,39,0.95,78,0.53,"gain_frame","j","risky",1303,0,1,0,372846
"1308",25,1,10,21,0.4,52,1,"gain_frame","f","safe",1565,0,0,0,379433
"1309",25,1,11,-57,0.2,71,1,"loss_frame","f","safe",1468,0,0,1,385925
"1310",25,1,12,-29,0.95,59,0.53,"loss_frame","j","risky",1460,0,1,0,392405
"1311",25,1,13,-19,0.8,93,1,"loss_frame","j","risky",1250,0,0,0,398675
"1312",25,1,14,-53,0.4,89,1,"loss_frame","f","safe",883,0,0,0,404580
"1313",25,1,15,49,0.05,98,10.04,"gain_frame","f","safe",1022,0,1,0,410626
"1314",25,1,16,41,0.6,68,1,"gain_frame","j","risky",1048,0,0,0,416695
"1315",25,1,17,-31,0.05,63,10.09,"loss_frame","f","safe",1255,0,1,0,422972
"1316",25,1,18,57,0.6,96,1,"gain_frame","j","risky",970,0,0,0,428966
"1317",25,1,19,13,0.2,64,1,"gain_frame","f","safe",1037,0,0,0,435025
"1318",25,1,20,34,0.4,86,1,"gain_frame","f","safe",1042,0,0,0,441086
"1319",25,1,21,19,0.2,94,1,"gain_frame","f","safe",1218,0,0,0,447323
"1320",25,1,22,47,0.95,94,0.52,"gain_frame","j","risky",1020,0,1,0,453370
"1321",25,1,23,-55,0.2,69,1,"loss_frame","f","safe",999,0,0,0,459388
"1322",25,1,24,56,0.8,70,1,"gain_frame","j","risky",1068,0,0,0,465478
"1323",25,1,25,-19,0.8,93,1,"loss_frame","j","risky",1171,0,0,0,471677
"1324",25,1,26,32,0.6,54,1,"gain_frame","j","risky",1102,0,0,0,477801
"1325",25,1,27,49,0.8,62,1,"gain_frame","j","risky",849,0,0,0,483671
"1326",25,1,28,-76,0.2,95,1,"loss_frame","f","safe",949,0,0,0,489644
"1327",25,1,29,-37,0.4,62,1,"loss_frame","f","safe",1353,0,0,0,496016
"1328",25,1,30,-27,0.6,68,1,"loss_frame","f","safe",1432,0,0,0,502470
"1329",25,1,31,-32,0.4,54,1,"loss_frame","f","safe",1856,0,0,0,509342
"1330",25,1,32,35,0.05,70,9.95,"gain_frame","f","safe",1671,0,1,0,516033
"1331",25,1,33,-39,0.05,78,9.95,"loss_frame","f","safe",1279,0,1,0,522337
"1332",25,1,34,-44,0.4,74,1,"loss_frame","f","safe",1574,0,0,0,528936
"1333",25,1,35,-26,0.6,65,1,"loss_frame","j","risky",1748,0,0,0,535708
"1334",25,1,36,55,0.8,68,1,"gain_frame","j","risky",1580,0,0,0,542315
"1335",25,1,37,36,0.4,90,1,"gain_frame","f","safe",1253,0,0,0,548587
"1336",25,1,38,-13,0.8,67,1,"loss_frame","j","risky",1284,0,0,0,554894
"1337",25,1,39,53,0.6,88,1,"gain_frame","j","risky",1098,0,0,0,561016
"1338",25,1,40,-48,0.2,60,1,"loss_frame","f","safe",1272,0,0,0,567305
"1339",25,1,41,-43,0.95,86,0.53,"loss_frame","j","risky",990,0,1,0,573316
"1340",25,1,42,34,0.4,86,1,"gain_frame","f","safe",1351,0,0,0,579681
"1341",25,1,43,-14,0.8,70,1,"loss_frame","j","risky",1187,0,0,0,585891
"1342",25,1,44,-19,0.8,98,1,"loss_frame","j","risky",872,0,0,0,591777
"1343",25,1,45,26,0.05,52,10.02,"gain_frame","f","safe",1484,0,1,0,598283
"1344",25,1,46,27,0.4,67,1,"gain_frame","f","safe",1827,0,0,0,605131
"1345",25,1,47,-22,0.6,56,1,"loss_frame","j","risky",1267,0,0,0,611409
"1346",25,1,48,-54,0.2,68,1,"loss_frame","f","safe",1340,0,0,0,617760
"1347",25,1,49,15,0.2,76,1,"gain_frame","f","safe",1090,0,0,0,623866
"1348",25,1,50,10,0.2,51,1,"gain_frame","f","safe",771,0,0,0,629663
"1349",25,1,51,49,0.8,61,1,"gain_frame","j","risky",986,0,0,0,635671
"1350",25,1,52,-36,0.6,91,1,"loss_frame","j","risky",1064,0,0,0,641749
"1351",26,0,1,11,0.2,53,1,"gain_frame","f","safe",4258,1,0,0,909676
"1352",26,0,2,-53,0.4,89,1,"loss_frame","f","safe",3548,1,0,0,918280
"1353",26,1,1,35,0.05,71,9.91,"gain_frame","f","safe",1450,0,1,0,943619
"1354",26,1,2,-37,0.05,73,9.88,"loss_frame","f","safe",756,0,1,0,949427
"1355",26,1,3,-31,0.6,78,1,"loss_frame","f","safe",1668,0,0,0,956141
"1356",26,1,4,-12,0.8,61,1,"loss_frame","j","risky",2607,0,0,0,963781
"1357",26,1,5,50,0.8,62,1,"gain_frame","f","safe",2479,0,0,0,971315
"1358",26,1,6,34,0.05,68,10.05,"gain_frame","f","safe",1250,0,1,0,977609
"1359",26,1,7,31,0.6,52,1,"gain_frame","f","safe",1780,0,0,0,984435
"1360",26,1,8,38,0.4,96,1,"gain_frame","f","safe",1318,0,0,0,990821
"1361",26,1,9,47,0.8,59,1,"gain_frame","f","safe",1774,0,0,0,997654
"1362",26,1,10,48,0.6,80,1,"gain_frame","f","safe",999,0,0,0,1003710
"1363",26,1,11,-71,0.2,89,1,"loss_frame","f","safe",849,0,0,0,1009612
"1364",26,1,12,-10,0.8,53,1,"loss_frame","j","risky",1591,0,0,0,1016246
"1365",26,1,13,-27,0.6,66,1,"loss_frame","f","safe",2513,0,0,0,1023827
"1366",26,1,14,-35,0.6,87,1,"loss_frame","f","safe",1567,0,0,0,1030444
"1367",26,1,15,-30,0.6,76,1,"loss_frame","f","safe",1108,0,0,0,1036623
"1368",26,1,16,-49,0.4,82,1,"loss_frame","f","safe",1348,0,0,0,1043024
"1369",26,1,17,-36,0.95,71,0.52,"loss_frame","j","risky",2195,0,1,0,1050276
"1370",26,1,18,15,0.2,77,1,"gain_frame","f","safe",757,0,0,0,1056089
"1371",26,1,19,67,0.8,84,1,"gain_frame","f","safe",2659,0,0,0,1063800
"1372",26,1,20,18,0.2,91,1,"gain_frame","f","safe",2107,0,0,0,1070972
"1373",26,1,21,46,0.6,77,1,"gain_frame","f","safe",1695,0,0,1,1077714
"1374",26,1,22,48,0.6,79,1,"gain_frame","f","safe",1422,0,0,0,1084184
"1375",26,1,23,-32,0.4,53,1,"loss_frame","f","safe",1757,0,0,0,1090989
"1376",26,1,24,-62,0.2,78,1,"loss_frame","f","safe",1993,0,0,0,1098025
"1377",26,1,25,-47,0.95,94,0.53,"loss_frame","j","risky",2047,0,1,0,1105119
"1378",26,1,26,-34,0.6,85,1,"loss_frame","f","safe",1902,0,0,0,1112079
"1379",26,1,27,-11,0.8,52,1,"loss_frame","f","safe",2160,0,0,0,1119303
"1380",26,1,28,25,0.4,63,1,"gain_frame","f","safe",1319,0,0,0,1125684
"1381",26,1,29,-35,0.05,70,9.96,"loss_frame","f","safe",1016,0,1,0,1131763
"1382",26,1,30,-51,0.2,64,1,"loss_frame","f","safe",1474,0,0,0,1138300
"1383",26,1,31,31,0.05,62,10.05,"gain_frame","f","safe",828,0,1,0,1144178
"1384",26,1,32,-16,0.8,78,1,"loss_frame","f","safe",1471,0,0,0,1150705
"1385",26,1,33,-45,0.2,56,1,"loss_frame","f","safe",1290,0,0,0,1157048
"1386",26,1,34,45,0.95,91,0.52,"gain_frame","j","risky",1935,0,1,0,1164042
"1387",26,1,35,13,0.2,63,1,"gain_frame","f","safe",798,0,0,0,1169887
"1388",26,1,36,-47,0.4,78,1,"loss_frame","f","safe",777,0,0,0,1175713
"1389",26,1,37,49,0.8,61,1,"gain_frame","f","safe",1224,0,0,0,1182001
"1390",26,1,38,25,0.4,63,1,"gain_frame","f","safe",890,0,0,0,1187952
"1391",26,1,39,34,0.4,85,1,"gain_frame","f","safe",838,0,0,0,1193841
"1392",26,1,40,-44,0.4,73,1,"loss_frame","f","safe",857,0,0,0,1199757
"1393",26,1,41,60,0.8,74,1,"gain_frame","f","safe",1267,0,0,0,1206078
"1394",26,1,42,-41,0.4,69,1,"loss_frame","f","safe",994,0,0,0,1212125
"1395",26,1,43,-49,0.05,99,10.09,"loss_frame","f","safe",2072,0,1,0,1219248
"1396",26,1,44,-70,0.2,88,1,"loss_frame","f","safe",1787,0,0,0,1226094
"1397",26,1,45,18,0.2,92,1,"gain_frame","f","safe",786,0,0,0,1231939
"1398",26,1,46,33,0.4,82,1,"gain_frame","f","safe",2472,0,0,0,1239470
"1399",26,1,47,36,0.6,60,1,"gain_frame","f","safe",2173,0,0,0,1246710
"1400",26,1,48,-13,0.8,64,1,"loss_frame","f","safe",2137,0,0,0,1253908
"1401",26,1,49,36,0.95,73,0.52,"gain_frame","j","risky",2783,0,1,0,1261756
"1402",26,1,50,46,0.95,91,0.53,"gain_frame","j","risky",1387,0,1,0,1268200
"1403",26,1,51,-39,0.95,78,0.53,"loss_frame","j","risky",1705,0,1,0,1274953
"1404",26,1,52,17,0.2,86,1,"gain_frame","f","safe",908,0,0,0,1280925
"1405",27,0,1,12,0.2,61,1,"gain_frame","f","safe",4486,1,0,0,33737
"1406",27,0,2,-60,0.4,100,1,"loss_frame","j","risky",2450,1,0,0,41251
"1407",27,1,1,49,0.6,81,1,"gain_frame","j","risky",652,0,0,0,50161
"1408",27,1,2,-20,0.8,97,1,"loss_frame","j","risky",763,0,0,0,55980
"1409",27,1,3,-44,0.2,55,1,"loss_frame","f","safe",411,0,0,0,61443
"1410",27,1,4,56,0.8,70,1,"gain_frame","j","risky",301,0,0,0,66790
"1411",27,1,5,35,0.4,87,1,"gain_frame","f","safe",576,0,0,0,72424
"1412",27,1,6,-13,0.8,62,1,"loss_frame","j","risky",382,0,0,0,77855
"1413",27,1,7,42,0.05,84,10.05,"gain_frame","f","safe",529,0,1,0,83442
"1414",27,1,8,12,0.2,59,1,"gain_frame","f","safe",629,0,0,0,89143
"1415",27,1,9,39,0.6,64,1,"gain_frame","j","risky",657,0,0,0,94853
"1416",27,1,10,-60,0.4,99,1,"loss_frame","f","safe",512,0,0,0,100426
"1417",27,1,11,-58,0.2,73,1,"loss_frame","f","safe",1282,0,0,0,106771
"1418",27,1,12,-40,0.95,80,0.53,"loss_frame","j","risky",581,0,1,0,112416
"1419",27,1,13,32,0.05,65,9.87,"gain_frame","f","safe",414,0,1,0,117916
"1420",27,1,14,35,0.4,88,1,"gain_frame","f","safe",498,0,0,0,123469
"1421",27,1,15,-51,0.2,64,1,"loss_frame","f","safe",467,0,0,0,129006
"1422",27,1,16,-76,0.2,95,1,"loss_frame","f","safe",475,0,0,0,134542
"1423",27,1,17,-34,0.05,67,9.9,"loss_frame","f","safe",336,0,1,0,139949
"1424",27,1,18,-22,0.6,55,1,"loss_frame","j","risky",627,0,0,0,145620
"1425",27,1,19,70,0.8,88,1,"gain_frame","j","risky",407,0,0,0,151089
"1426",27,1,20,-11,0.8,54,1,"loss_frame","j","risky",308,0,0,0,156466
"1427",27,1,21,11,0.2,54,1,"gain_frame","f","safe",437,0,0,0,161964
"1428",27,1,22,75,0.8,94,1,"gain_frame","j","risky",333,0,0,0,167350
"1429",27,1,23,28,0.95,55,0.53,"gain_frame","f","safe",529,0,1,0,172945
"1430",27,1,24,45,0.95,91,0.52,"gain_frame","j","risky",376,0,1,0,178384
"1431",27,1,25,50,0.8,63,1,"gain_frame","j","risky",663,0,0,0,184098
"1432",27,1,26,43,0.8,54,1,"gain_frame","j","risky",382,0,0,0,189538
"1433",27,1,27,46,0.6,76,1,"gain_frame","j","risky",365,0,0,0,194955
"1434",27,1,28,-44,0.4,74,1,"loss_frame","f","safe",712,0,0,0,200744
"1435",27,1,29,-32,0.95,64,0.53,"loss_frame","j","risky",359,0,1,0,206156
"1436",27,1,30,35,0.4,88,1,"gain_frame","f","safe",498,0,0,0,211708
"1437",27,1,31,33,0.6,55,1,"gain_frame","j","risky",488,0,0,0,217256
