"","id","block","trial_number","safe_option","p","lumpSum","odds_ratio","frame_choice","response_choice","choice","reaction_time_choice","practice_trial","catch_trial","random_trial","time_elapsed"
"1",1,0,1,23,0.4,58,1,"gain_frame","f","safe",2633,1,0,0,86171
"2",1,0,2,-48,0.2,60,1,"loss_frame","f","safe",1279,1,0,0,95007
"3",1,1,1,-23,0.6,57,1,"loss_frame","j","risky",1274,0,0,0,156813
"4",1,1,2,48,0.8,60,1,"gain_frame","j","risky",908,0,0,0,165283
"5",1,1,3,41,0.6,68,1,"gain_frame","f","safe",1952,0,0,0,174787
"6",1,1,4,-65,0.2,81,1,"loss_frame","f","safe",2612,0,0,0,184957
"7",1,1,5,59,0.8,74,1,"gain_frame","j","risky",785,0,0,0,193299
"8",1,1,6,-42,0.4,70,1,"loss_frame","f","safe",2084,0,0,0,202941
"9",1,1,7,-28,0.6,70,1,"loss_frame","f","safe",3866,0,0,0,214366
"10",1,1,8,25,0.4,62,1,"gain_frame","f","safe",1305,0,0,0,223239
"11",1,1,9,-34,0.95,68,0,"loss_frame","j","risky",1211,0,1,0,231997
"12",1,1,10,29,0.4,72,1,"gain_frame","f","safe",1215,0,0,0,240771
"13",1,1,11,30,0.05,61,0,"gain_frame","f","safe",1563,0,1,0,249885
"14",1,1,12,-52,0.2,65,1,"loss_frame","f","safe",1140,0,0,0,258589
"15",1,1,13,-34,0.4,57,1,"loss_frame","no_choice","no_choice",-1,0,0,0,270157
"16",1,1,14,-28,0.05,56,0,"loss_frame","f","safe",960,0,1,0,278685
"17",1,1,15,49,0.8,61,1,"gain_frame","j","risky",966,0,0,0,287219
"18",1,1,16,15,0.2,74,1,"gain_frame","f","safe",2829,0,0,0,297606
"19",1,1,17,-68,0.2,85,1,"loss_frame","j","risky",2394,0,0,0,307550
"20",1,1,18,-29,0.95,58,0,"loss_frame","j","risky",1593,0,1,0,316702
"21",1,1,19,-28,0.6,71,1,"loss_frame","f","safe",2370,0,0,0,326626
"22",1,1,20,-17,0.8,82,1,"loss_frame","f","safe",2326,0,0,0,336509
"23",1,1,21,13,0.2,63,1,"gain_frame","f","safe",809,0,0,0,344894
"24",1,1,22,51,0.6,85,1,"gain_frame","f","safe",1466,0,0,0,353919
"25",1,1,23,-12,0.8,59,1,"loss_frame","j","risky",3777,0,0,0,365261
"26",1,1,24,-32,0.4,54,1,"loss_frame","f","safe",1527,0,0,0,374355
"27",1,1,25,29,0.4,74,1,"gain_frame","f","safe",666,0,0,1,382583
"28",1,1,26,12,0.2,60,1,"gain_frame","f","safe",752,0,0,0,390882
"29",1,1,27,-29,0.05,59,0,"loss_frame","f","safe",674,0,1,0,399118
"30",1,1,28,39,0.6,66,1,"gain_frame","f","safe",1872,0,0,0,408558
"31",1,1,29,-50,0.4,83,1,"loss_frame","f","safe",1733,0,0,0,417853
"32",1,1,30,68,0.8,85,1,"gain_frame","j","risky",654,0,0,0,426054
"33",1,1,31,-42,0.4,71,1,"loss_frame","f","safe",1736,0,0,0,435342
"34",1,1,32,63,0.8,78,1,"gain_frame","f","safe",714,0,0,0,443598
"35",1,1,33,33,0.95,66,0,"gain_frame","j","risky",1053,0,1,0,452227
"36",1,1,34,-44,0.2,55,1,"loss_frame","f","safe",1683,0,0,0,461459
"37",1,1,35,-48,0.4,80,1,"loss_frame","f","safe",1440,0,0,0,470451
"38",1,1,36,37,0.6,61,1,"gain_frame","f","safe",1217,0,0,0,479219
"39",1,1,37,-34,0.6,85,1,"loss_frame","j","risky",1551,0,0,0,488323
"40",1,1,38,-15,0.8,75,1,"loss_frame","j","risky",2179,0,0,0,498083
"41",1,1,39,-58,0.2,73,1,"loss_frame","f","safe",1471,0,0,0,507108
"42",1,1,40,-18,0.8,91,1,"loss_frame","f","safe",2259,0,0,0,516915
"43",1,1,41,39,0.6,65,1,"gain_frame","j","risky",2843,0,0,0,527315
"44",1,1,42,17,0.2,87,1,"gain_frame","f","safe",2343,0,0,0,537214
"45",1,1,43,-11,0.8,54,1,"loss_frame","j","risky",1238,0,0,0,546019
"46",1,1,44,-14,0.8,71,1,"loss_frame","j","risky",1817,0,0,0,555390
"47",1,1,45,53,0.6,88,1,"gain_frame","f","safe",1618,0,0,0,564563
"48",1,1,46,-35,0.6,86,1,"loss_frame","f","safe",2838,0,0,0,574958
"49",1,1,47,24,0.4,61,1,"gain_frame","f","safe",1819,0,0,0,584340
"50",1,1,48,66,0.8,83,1,"gain_frame","j","risky",1444,0,0,0,593332
"51",1,1,49,14,0.2,69,1,"gain_frame","f","safe",1909,0,0,0,602798
"52",1,1,50,26,0.4,66,1,"gain_frame","f","safe",2155,0,0,0,612510
"53",1,1,51,34,0.05,67,0,"gain_frame","f","safe",1273,0,1,0,621359
"54",1,1,52,16,0.2,80,1,"gain_frame","j","risky",1341,0,0,0,630259
"55",1,1,53,-50,0.2,63,1,"loss_frame","f","safe",3366,0,0,0,641181
"56",1,1,54,34,0.4,85,1,"gain_frame","j","risky",1726,0,0,0,650452
"57",1,1,55,31,0.95,62,0,"gain_frame","j","risky",862,0,1,0,658867
"58",1,1,56,-24,0.6,61,1,"loss_frame","j","risky",1424,0,0,0,667845
"59",2,0,1,24,0.4,59,1,"gain_frame","f","safe",2540,1,0,0,90007
"60",2,0,2,-46,0.2,58,1,"loss_frame","j","risky",3564,1,0,0,101135
"61",2,1,1,17,0.2,83,1,"gain_frame","f","safe",3053,0,0,0,171968
"62",2,1,2,17,0.2,85,1,"gain_frame","f","safe",2501,0,0,0,182068
"63",2,1,3,53,0.8,66,1,"gain_frame","f","safe",2341,0,0,0,191967
"64",2,1,4,15,0.2,73,1,"gain_frame","f","safe",1699,0,0,0,201244
"65",2,1,5,48,0.6,80,1,"gain_frame","f","safe",2117,0,0,0,210911
"66",2,1,6,-29,0.95,59,0,"loss_frame","j","risky",986,0,1,0,219485
"67",2,1,7,-15,0.8,76,1,"loss_frame","f","safe",2268,0,0,0,229342
"68",2,1,8,30,0.05,60,0,"gain_frame","f","safe",1814,0,1,0,238738
"69",2,1,9,-29,0.6,72,1,"loss_frame","j","risky",2213,0,0,0,248525
"70",2,1,10,-36,0.4,60,1,"loss_frame","f","safe",2155,0,0,0,258250
"71",2,1,11,-33,0.4,55,1,"loss_frame","f","safe",2498,0,0,0,268340
"72",2,1,12,-70,0.2,87,1,"loss_frame","j","risky",2460,0,0,0,278370
"73",2,1,13,-34,0.6,86,1,"loss_frame","f","safe",1889,0,0,0,287806
"74",2,1,14,14,0.2,71,1,"gain_frame","j","risky",2542,0,0,0,297926
"75",2,1,15,32,0.4,79,1,"gain_frame","f","safe",1565,0,0,0,307053
"76",2,1,16,-45,0.4,76,1,"loss_frame","j","risky",2944,0,0,0,317557
"77",2,1,17,30,0.95,60,0,"gain_frame","j","risky",2263,0,1,0,327407
"78",2,1,18,55,0.8,68,1,"gain_frame","f","safe",1259,0,0,0,336207
"79",2,1,19,22,0.4,55,1,"gain_frame","f","safe",1872,0,0,1,345660
"80",2,1,20,-26,0.6,66,1,"loss_frame","j","risky",2102,0,0,0,355349
"81",2,1,21,-17,0.8,86,1,"loss_frame","j","risky",2019,0,0,0,364964
"82",2,1,22,29,0.95,58,0,"gain_frame","f","safe",1356,0,1,0,373881
"83",2,1,23,69,0.8,86,1,"gain_frame","f","safe",1470,0,0,0,382918
"84",2,1,24,24,0.4,61,1,"gain_frame","f","safe",2298,0,0,0,392765
"85",2,1,25,33,0.4,82,1,"gain_frame","f","safe",1259,0,0,0,401573
"86",2,1,26,-62,0.2,78,1,"loss_frame","j","risky",1465,0,0,0,410612
"87",2,1,27,51,0.8,64,1,"gain_frame","f","safe",1569,0,0,0,419753
"88",2,1,28,11,0.2,57,1,"gain_frame","f","safe",1989,0,0,0,429300
"89",2,1,29,-31,0.05,62,0,"loss_frame","f","safe",1575,0,1,0,438453
"90",2,1,30,-12,0.8,60,1,"loss_frame","f","safe",2496,0,0,0,448511
"91",2,1,31,-49,0.2,61,1,"loss_frame","f","safe",2171,0,0,0,458243
"92",2,1,32,-31,0.95,61,0,"loss_frame","j","risky",2808,0,1,0,468614
"93",2,1,33,-12,0.8,60,1,"loss_frame","f","safe",1488,0,0,0,477668
"94",2,1,34,38,0.6,64,1,"gain_frame","f","safe",1700,0,0,0,486954
"95",2,1,35,33,0.4,83,1,"gain_frame","f","safe",2043,0,0,0,496562
"96",2,1,36,36,0.6,59,1,"gain_frame","f","safe",3721,0,0,0,507859
"97",2,1,37,-45,0.4,74,1,"loss_frame","f","safe",3023,0,0,0,518451
"98",2,1,38,-28,0.05,56,0,"loss_frame","f","safe",1202,0,1,0,527239
"99",2,1,39,-13,0.8,65,1,"loss_frame","f","safe",1213,0,0,0,536053
"100",2,1,40,28,0.05,57,0,"gain_frame","f","safe",1912,0,1,0,545521
"101",2,1,41,-59,0.2,74,1,"loss_frame","f","safe",1919,0,0,0,555011
"102",2,1,42,46,0.6,77,1,"gain_frame","f","safe",1517,0,0,0,564104
"103",2,1,43,61,0.8,76,1,"gain_frame","f","safe",1199,0,0,0,572864
"104",2,1,44,49,0.6,81,1,"gain_frame","f","safe",1088,0,0,0,581511
"105",2,1,45,47,0.6,79,1,"gain_frame","f","safe",973,0,0,0,590080
"106",2,1,46,-43,0.4,72,1,"loss_frame","f","safe",2425,0,0,0,600073
"107",2,1,47,-31,0.6,78,1,"loss_frame","f","safe",2133,0,0,0,609792
"108",2,1,48,-23,0.6,58,1,"loss_frame","f","safe",1466,0,0,0,618828
"109",2,1,49,-66,0.2,83,1,"loss_frame","f","safe",1624,0,0,0,628008
"110",2,1,50,51,0.8,63,1,"gain_frame","f","safe",1273,0,0,0,636878
"111",2,1,51,13,0.2,67,1,"gain_frame","f","safe",1628,0,0,0,646074
"112",2,1,52,-47,0.2,59,1,"loss_frame","f","safe",2399,0,0,0,656037
"113",2,1,53,-51,0.4,85,1,"loss_frame","f","safe",1677,0,0,0,665284
"114",2,1,54,-16,0.8,82,1,"loss_frame","f","safe",1718,0,0,0,674579
"115",2,1,55,27,0.4,68,1,"gain_frame","f","safe",2468,0,0,0,684629
"116",2,1,56,-30,0.6,74,1,"loss_frame","j","risky",2309,0,0,0,694522
"117",3,0,1,27,0.4,68,1,"gain_frame","f","safe",14109,1,0,0,623658
"118",3,0,2,-44,0.2,55,1,"loss_frame","j","risky",3660,1,0,0,634866
"119",3,1,1,64,0.8,80,1,"gain_frame","j","risky",2010,0,0,0,750989
"120",3,1,2,51,0.6,85,1,"gain_frame","j","risky",1015,0,0,0,759567
"121",3,1,3,14,0.2,69,1,"gain_frame","no_choice","no_choice",-1,0,0,0,771128
"122",3,1,4,49,0.8,61,1,"gain_frame","j","risky",1200,0,0,0,779898
"123",3,1,5,46,0.6,76,1,"gain_frame","j","risky",1363,0,0,0,788807
"124",3,1,6,27,0.4,67,1,"gain_frame","j","risky",2035,0,0,0,798395
"125",3,1,7,54,0.8,67,1,"gain_frame","j","risky",3753,0,0,0,809703
"126",3,1,8,-11,0.8,58,1,"loss_frame","f","safe",3116,0,0,0,820366
"127",3,1,9,57,0.8,71,1,"gain_frame","f","safe",2454,0,0,1,830367
"128",3,1,10,28,0.05,56,0,"gain_frame","f","safe",1959,0,1,0,839880
"129",3,1,11,23,0.4,58,1,"gain_frame","f","safe",2895,0,0,0,850332
"130",3,1,12,-34,0.4,57,1,"loss_frame","f","safe",2270,0,0,0,860160
"131",3,1,13,-17,0.8,86,1,"loss_frame","j","risky",1620,0,0,0,869333
"132",3,1,14,68,0.8,85,1,"gain_frame","f","safe",1000,0,0,0,877889
"133",3,1,15,-31,0.95,62,0,"loss_frame","j","risky",1473,0,1,0,886913
"134",3,1,16,-17,0.8,86,1,"loss_frame","j","risky",2210,0,0,0,896681
"135",3,1,17,19,0.4,47,1,"gain_frame","f","safe",2471,0,0,0,906706
"136",3,1,18,33,0.6,55,1,"gain_frame","j","risky",2243,0,0,0,916506
"137",3,1,19,-70,0.2,88,1,"loss_frame","j","risky",3065,0,0,0,927141
"138",3,1,20,-47,0.4,79,1,"loss_frame","f","safe",1724,0,0,0,936427
"139",3,1,21,-30,0.6,74,1,"loss_frame","j","risky",1519,0,0,0,945500
"140",3,1,22,38,0.6,63,1,"gain_frame","j","risky",1757,0,0,0,954812
"141",3,1,23,-37,0.4,62,1,"loss_frame","f","safe",3374,0,0,0,965723
"142",3,1,24,-31,0.6,78,1,"loss_frame","j","risky",1776,0,0,0,975056
"143",3,1,25,41,0.6,69,1,"gain_frame","f","safe",1074,0,0,0,983685
"144",3,1,26,18,0.2,92,1,"gain_frame","j","risky",2502,0,0,0,993740
"145",3,1,27,-45,0.4,75,1,"loss_frame","no_choice","no_choice",-1,0,0,0,1005270
"146",3,1,28,33,0.4,82,1,"gain_frame","f","safe",2025,0,0,0,1014841
"147",3,1,29,-35,0.05,69,0,"loss_frame","f","safe",1581,0,1,0,1023963
"148",3,1,30,12,0.2,62,1,"gain_frame","j","risky",3128,0,0,0,1034639
"149",3,1,31,-56,0.2,70,1,"loss_frame","f","safe",2404,0,0,0,1044599
"150",3,1,32,-49,0.4,81,1,"loss_frame","f","safe",2537,0,0,0,1054692
"151",3,1,33,16,0.2,81,1,"gain_frame","f","safe",2268,0,0,0,1064513
"152",3,1,34,-30,0.05,60,0,"loss_frame","f","safe",1749,0,1,0,1073810
"153",3,1,35,-51,0.2,64,1,"loss_frame","f","safe",1598,0,0,0,1082970
"154",3,1,36,-13,0.8,63,1,"loss_frame","j","risky",2057,0,0,0,1092586
"155",3,1,37,-47,0.2,59,1,"loss_frame","f","safe",2500,0,0,0,1102650
"156",3,1,38,27,0.95,55,0,"gain_frame","j","risky",2355,0,1,0,1112552
"157",3,1,39,28,0.95,55,0,"gain_frame","f","safe",133,0,1,0,1120242
"158",3,1,40,-42,0.4,70,1,"loss_frame","f","safe",2505,0,0,0,1130305
"159",3,1,41,-30,0.95,60,0,"loss_frame","j","risky",2615,0,1,0,1140465
"160",3,1,42,55,0.8,68,1,"gain_frame","j","risky",1736,0,0,0,1149761
"161",3,1,43,-24,0.6,60,1,"loss_frame","j","risky",3146,0,0,0,1160455
"162",3,1,44,-33,0.6,82,1,"loss_frame","j","risky",1577,0,0,0,1169595
"163",3,1,45,13,0.2,64,1,"gain_frame","f","safe",2161,0,0,0,1179315
"164",3,1,46,-23,0.6,59,1,"loss_frame","j","risky",3644,0,0,0,1190510
"165",3,1,47,-69,0.2,86,1,"loss_frame","f","safe",2252,0,0,0,1200327
"166",3,1,48,-64,0.2,80,1,"loss_frame","f","safe",2722,0,0,0,1210607
"167",3,1,49,29,0.4,73,1,"gain_frame","f","safe",1903,0,0,0,1220065
"168",3,1,50,-28,0.6,71,1,"loss_frame","j","risky",1754,0,0,0,1229375
"169",3,1,51,-14,0.8,71,1,"loss_frame","j","risky",2996,0,0,0,1239921
"170",3,1,52,47,0.6,78,1,"gain_frame","f","safe",2085,0,0,0,1249550
"171",3,1,53,33,0.4,82,1,"gain_frame","f","safe",2019,0,0,0,1259111
"172",3,1,54,16,0.2,80,1,"gain_frame","f","safe",1734,0,0,0,1268398
"173",3,1,55,29,0.05,57,0,"gain_frame","f","safe",2212,0,1,0,1278152
"174",3,1,56,-15,0.8,73,1,"loss_frame","j","risky",1569,0,0,0,1287288
"175",4,0,1,11,0.2,57,1,"gain_frame","j","risky",8928,1,0,0,91582
"176",4,0,2,-43,0.2,54,1,"loss_frame","j","risky",10873,1,0,0,110029
"177",4,1,1,-53,0.4,89,1,"loss_frame","no_choice","no_choice",-1,0,0,0,170144
"178",4,1,2,-58,0.2,73,1,"loss_frame","j","risky",1852,0,0,0,179574
"179",4,1,3,70,0.8,88,1,"gain_frame","j","risky",1892,0,0,0,189019
"180",4,1,4,-15,0.8,79,1,"loss_frame","j","risky",2803,0,0,0,199386
"181",4,1,5,-52,0.2,65,1,"loss_frame","j","risky",1963,0,0,0,208906
"182",4,1,6,14,0.2,71,1,"gain_frame","f","safe",2460,0,0,0,218929
"183",4,1,7,-28,0.6,71,1,"loss_frame","j","risky",3217,0,0,0,229699
"184",4,1,8,14,0.2,72,1,"gain_frame","j","risky",2196,0,0,0,239459
"185",4,1,9,28,0.4,70,1,"gain_frame","f","safe",3392,0,0,0,250426
"186",4,1,10,27,0.4,67,1,"gain_frame","f","safe",3519,0,0,0,261495
"187",4,1,11,24,0.4,60,1,"gain_frame","j","risky",2194,0,0,0,271248
"188",4,1,12,-14,0.8,73,1,"loss_frame","j","risky",3154,0,0,0,281959
"189",4,1,13,-32,0.95,63,0,"loss_frame","j","risky",1662,0,1,0,291180
"190",4,1,14,-11,0.8,57,1,"loss_frame","j","risky",2030,0,0,0,300759
"191",4,1,15,11,0.2,57,1,"gain_frame","f","safe",2301,0,0,0,310612
"192",4,1,16,28,0.05,56,0,"gain_frame","f","safe",2348,0,1,0,320528
"193",4,1,17,62,0.8,78,1,"gain_frame","no_choice","no_choice",-1,0,0,0,332089
"194",4,1,18,33,0.6,55,1,"gain_frame","no_choice","no_choice",-1,0,0,0,343646
"195",4,1,19,-22,0.6,56,1,"loss_frame","j","risky",3248,0,0,0,354465
"196",4,1,20,37,0.4,91,1,"gain_frame","j","risky",2408,0,0,0,364435
"197",4,1,21,17,0.2,83,1,"gain_frame","no_choice","no_choice",-1,0,0,0,375984
"198",4,1,22,16,0.2,81,1,"gain_frame","f","safe",2397,0,0,0,385942
"199",4,1,23,46,0.6,76,1,"gain_frame","j","risky",3162,0,0,1,396657
"200",4,1,24,-63,0.2,79,1,"loss_frame","no_choice","no_choice",-1,0,0,0,408232
"201",4,1,25,45,0.8,57,1,"gain_frame","j","risky",1906,0,0,0,417710
"202",4,1,26,31,0.95,63,0,"gain_frame","j","risky",1747,0,1,0,427016
"203",4,1,27,12,0.2,60,1,"gain_frame","f","safe",1426,0,0,0,435997
"204",4,1,28,-29,0.95,58,0,"loss_frame","j","risky",1214,0,1,0,444764
"205",4,1,29,62,0.8,78,1,"gain_frame","j","risky",884,0,0,0,453202
"206",4,1,30,-72,0.2,90,1,"loss_frame","f","safe",1741,0,0,0,462501
"207",4,1,31,27,0.05,54,0,"gain_frame","j","risky",1015,0,1,0,471079
"208",4,1,32,-36,0.4,59,1,"loss_frame","j","risky",1446,0,0,0,480084
"209",4,1,33,-51,0.4,85,1,"loss_frame","f","safe",612,0,0,0,488259
"210",4,1,34,28,0.4,70,1,"gain_frame","j","risky",1765,0,0,0,497577
"211",4,1,35,-12,0.8,63,1,"loss_frame","f","safe",616,0,0,0,505747
"212",4,1,36,48,0.6,80,1,"gain_frame","j","risky",2595,0,0,0,515903
"213",4,1,37,-43,0.4,72,1,"loss_frame","f","safe",1604,0,0,0,525050
"214",4,1,38,-17,0.8,85,1,"loss_frame","j","risky",1365,0,0,0,533971
"215",4,1,39,65,0.8,81,1,"gain_frame","f","safe",805,0,0,0,542337
"216",4,1,40,-25,0.6,61,1,"loss_frame","j","risky",2046,0,0,0,551932
"217",4,1,41,45,0.6,75,1,"gain_frame","j","risky",805,0,0,0,560311
"218",4,1,42,-14,0.8,70,1,"loss_frame","j","risky",1229,0,0,0,569093
"219",4,1,43,-32,0.05,63,0,"loss_frame","j","risky",1638,0,1,0,578303
"220",4,1,44,31,0.4,78,1,"gain_frame","f","safe",898,0,0,0,586773
"221",4,1,45,30,0.95,59,0,"gain_frame","j","risky",1701,0,1,0,596035
"222",4,1,46,-37,0.4,61,1,"loss_frame","j","risky",1773,0,0,0,605364
"223",4,1,47,39,0.6,66,1,"gain_frame","j","risky",3370,0,0,0,616289
"224",4,1,48,-63,0.2,79,1,"loss_frame","j","risky",3444,0,0,0,627297
"225",4,1,49,-32,0.05,64,0,"loss_frame","f","safe",1876,0,1,0,636720
"226",4,1,50,-49,0.2,61,1,"loss_frame","f","safe",2084,0,0,0,646368
"227",4,1,51,-28,0.6,70,1,"loss_frame","j","risky",760,0,0,0,654666
"228",4,1,52,46,0.8,57,1,"gain_frame","f","safe",1178,0,0,0,663385
"229",4,1,53,51,0.6,85,1,"gain_frame","j","risky",1553,0,0,0,672496
"230",4,1,54,-31,0.6,76,1,"loss_frame","j","risky",1607,0,0,0,681672
"231",4,1,55,-35,0.6,87,1,"loss_frame","j","risky",941,0,0,0,690157
"232",4,1,56,-42,0.4,70,1,"loss_frame","f","safe",622,0,0,0,698334
"233",5,0,1,48,0.8,60,1,"gain_frame","f","safe",1462,1,0,0,83094
"234",5,0,2,-12,0.8,58,1,"loss_frame","j","risky",1344,1,0,0,92007
"235",5,1,1,67,0.8,84,1,"gain_frame","f","safe",864,0,0,0,151137
"236",5,1,2,55,0.8,69,1,"gain_frame","f","safe",974,0,0,0,159679
"237",5,1,3,16,0.2,78,1,"gain_frame","f","safe",353,0,0,0,167595
"238",5,1,4,-53,0.2,66,1,"loss_frame","j","risky",395,0,0,0,175545
"239",5,1,5,-34,0.6,84,1,"loss_frame","f","safe",355,0,0,0,183489
"240",5,1,6,-31,0.95,62,0,"loss_frame","j","risky",1151,0,1,0,192222
"241",5,1,7,27,0.05,54,0,"gain_frame","f","safe",1823,0,1,0,201622
"242",5,1,8,-67,0.2,84,1,"loss_frame","f","safe",490,0,0,0,209689
"243",5,1,9,27,0.95,54,0,"gain_frame","f","safe",167,0,1,0,217405
"244",5,1,10,45,0.8,56,1,"gain_frame","f","safe",2051,0,0,0,227022
"245",5,1,11,-31,0.6,78,1,"loss_frame","j","risky",835,0,0,0,235416
"246",5,1,12,-54,0.2,68,1,"loss_frame","j","risky",1955,0,0,0,244942
"247",5,1,13,12,0.2,59,1,"gain_frame","j","risky",756,0,0,0,253264
"248",5,1,14,52,0.6,87,1,"gain_frame","f","safe",647,0,0,0,261460
"249",5,1,15,29,0.4,73,1,"gain_frame","no_choice","no_choice",-1,0,0,0,273026
"250",5,1,16,29,0.05,58,0,"gain_frame","no_choice","no_choice",-1,0,1,0,284607
"251",5,1,17,-14,0.8,72,1,"loss_frame","no_choice","no_choice",-1,0,0,0,296175
"252",5,1,18,35,0.4,87,1,"gain_frame","no_choice","no_choice",-1,0,0,0,307763
"253",5,1,19,-26,0.6,66,1,"loss_frame","no_choice","no_choice",-1,0,0,0,319346
"254",5,1,20,-47,0.4,78,1,"loss_frame","no_choice","no_choice",-1,0,0,0,330893
"255",5,1,21,35,0.4,87,1,"gain_frame","no_choice","no_choice",-1,0,0,0,342475
"256",5,1,22,-23,0.6,56,1,"loss_frame","no_choice","no_choice",-1,0,0,1,354059
"257",5,1,23,-46,0.4,76,1,"loss_frame","no_choice","no_choice",-1,0,0,0,365638
"258",5,1,24,48,0.6,80,1,"gain_frame","no_choice","no_choice",-1,0,0,0,377204
"259",5,1,25,-38,0.4,63,1,"loss_frame","no_choice","no_choice",-1,0,0,0,388791
"260",5,1,26,31,0.95,62,0,"gain_frame","no_choice","no_choice",-1,0,1,0,400368
"261",5,1,27,-11,0.8,57,1,"loss_frame","no_choice","no_choice",-1,0,0,0,411955
"262",5,1,28,16,0.2,82,1,"gain_frame","no_choice","no_choice",-1,0,0,0,423523
"263",5,1,29,33,0.6,55,1,"gain_frame","no_choice","no_choice",-1,0,0,0,435079
"264",5,1,30,13,0.2,67,1,"gain_frame","no_choice","no_choice",-1,0,0,0,446643
"265",5,1,31,-31,0.05,62,0,"loss_frame","no_choice","no_choice",-1,0,1,0,458253
"266",5,1,32,-66,0.2,83,1,"loss_frame","no_choice","no_choice",-1,0,0,0,469855
"267",5,1,33,-32,0.05,64,0,"loss_frame","no_choice","no_choice",-1,0,1,0,481428
"268",5,1,34,65,0.8,82,1,"gain_frame","no_choice","no_choice",-1,0,0,0,493027
"269",5,1,35,15,0.2,76,1,"gain_frame","no_choice","no_choice",-1,0,0,0,504602
"270",5,1,36,-45,0.2,56,1,"loss_frame","no_choice","no_choice",-1,0,0,0,516176
"271",5,1,37,-45,0.4,75,1,"loss_frame","no_choice","no_choice",-1,0,0,0,527777
"272",5,1,38,50,0.8,62,1,"gain_frame","no_choice","no_choice",-1,0,0,0,539372
"273",5,1,39,-25,0.6,63,1,"loss_frame","no_choice","no_choice",-1,0,0,0,550946
"274",5,1,40,22,0.4,54,1,"gain_frame","no_choice","no_choice",-1,0,0,0,562515
"275",5,1,41,-28,0.95,56,0,"loss_frame","no_choice","no_choice",-1,0,1,0,574080
"276",5,1,42,11,0.2,57,1,"gain_frame","no_choice","no_choice",-1,0,0,0,585671
"277",5,1,43,-34,0.4,57,1,"loss_frame","no_choice","no_choice",-1,0,0,0,597255
"278",5,1,44,-50,0.4,83,1,"loss_frame","no_choice","no_choice",-1,0,0,0,608839
"279",5,1,45,-30,0.6,75,1,"loss_frame","no_choice","no_choice",-1,0,0,0,620425
"280",5,1,46,-17,0.8,85,1,"loss_frame","no_choice","no_choice",-1,0,0,0,632000
"281",5,1,47,24,0.4,60,1,"gain_frame","no_choice","no_choice",-1,0,0,0,643577
"282",5,1,48,-56,0.2,70,1,"loss_frame","no_choice","no_choice",-1,0,0,0,655164
"283",5,1,49,39,0.6,65,1,"gain_frame","no_choice","no_choice",-1,0,0,0,666742
"284",5,1,50,25,0.4,63,1,"gain_frame","no_choice","no_choice",-1,0,0,0,678335
"285",5,1,51,58,0.8,73,1,"gain_frame","no_choice","no_choice",-1,0,0,0,689884
"286",5,1,52,51,0.6,86,1,"gain_frame","no_choice","no_choice",-1,0,0,0,701444
"287",5,1,53,-15,0.8,73,1,"loss_frame","no_choice","no_choice",-1,0,0,0,712990
"288",5,1,54,-11,0.8,56,1,"loss_frame","no_choice","no_choice",-1,0,0,0,724529
"289",5,1,55,-17,0.8,84,1,"loss_frame","no_choice","no_choice",-1,0,0,0,736100
"290",5,1,56,39,0.6,66,1,"gain_frame","no_choice","no_choice",-1,0,0,0,747664
"291",6,0,1,12,0.2,61,1,"gain_frame","f","safe",8911,1,0,0,129388
"292",6,0,2,-50,0.2,62,1,"loss_frame","f","safe",9390,1,0,0,146354
"293",6,1,1,-59,0.2,74,1,"loss_frame","f","safe",3584,0,0,0,241465
"294",6,1,2,-30,0.95,61,0,"loss_frame","j","risky",1433,0,1,0,250449
"295",6,1,3,-71,0.2,89,1,"loss_frame","f","safe",2402,0,0,0,260404
"296",6,1,4,36,0.4,90,1,"gain_frame","j","risky",2861,0,0,0,270835
"297",6,1,5,30,0.05,59,0,"gain_frame","f","safe",1676,0,1,0,280072
"298",6,1,6,36,0.4,90,1,"gain_frame","no_choice","no_choice",-1,0,0,0,291631
"299",6,1,7,58,0.8,72,1,"gain_frame","j","risky",1013,0,0,0,300192
"300",6,1,8,-15,0.8,74,1,"loss_frame","j","risky",1377,0,0,0,309120
"301",6,1,9,15,0.2,74,1,"gain_frame","f","safe",722,0,0,0,317412
"302",6,1,10,-45,0.2,56,1,"loss_frame","f","safe",1605,0,0,0,326570
"303",6,1,11,47,0.8,58,1,"gain_frame","j","risky",955,0,0,0,335068
"304",6,1,12,29,0.4,74,1,"gain_frame","f","safe",2518,0,0,0,345145
"305",6,1,13,-32,0.05,63,0,"loss_frame","j","risky",1714,0,1,0,354412
"306",6,1,14,-72,0.2,90,1,"loss_frame","j","risky",2930,0,0,0,364896
"307",6,1,15,-15,0.8,78,1,"loss_frame","j","risky",1628,0,0,0,374080
"308",6,1,16,51,0.6,86,1,"gain_frame","j","risky",2965,0,0,0,384608
"309",6,1,17,34,0.6,56,1,"gain_frame","j","risky",2318,0,0,0,394471
"310",6,1,18,12,0.2,60,1,"gain_frame","f","safe",1804,0,0,0,403828
"311",6,1,19,60,0.8,75,1,"gain_frame","j","risky",1186,0,0,0,412580
"312",6,1,20,-44,0.2,55,1,"loss_frame","f","safe",2460,0,0,0,422609
"313",6,1,21,-28,0.6,71,1,"loss_frame","j","risky",1344,0,0,0,431509
"314",6,1,22,-58,0.2,72,1,"loss_frame","f","safe",3033,0,0,0,442112
"315",6,1,23,29,0.95,58,0,"gain_frame","j","risky",868,0,1,0,450531
"316",6,1,24,-14,0.8,68,1,"loss_frame","j","risky",788,0,0,0,458879
"317",6,1,25,36,0.6,60,1,"gain_frame","j","risky",979,0,0,0,467421
"318",6,1,26,-53,0.4,88,1,"loss_frame","j","risky",2051,0,0,0,477029
"319",6,1,27,-35,0.4,58,1,"loss_frame","f","safe",1943,0,0,0,486541
"320",6,1,28,-30,0.05,59,0,"loss_frame","f","safe",1617,0,1,0,495709
"321",6,1,29,-33,0.6,84,1,"loss_frame","j","risky",1305,0,0,0,504572
"322",6,1,30,53,0.6,88,1,"gain_frame","j","risky",1021,0,0,1,513165
"323",6,1,31,66,0.8,83,1,"gain_frame","j","risky",769,0,0,0,521493
"324",6,1,32,15,0.2,75,1,"gain_frame","f","safe",1111,0,0,0,530166
"325",6,1,33,65,0.8,81,1,"gain_frame","j","risky",940,0,0,0,538662
"326",6,1,34,-39,0.4,65,1,"loss_frame","f","safe",1245,0,0,0,547461
"327",6,1,35,-37,0.6,92,1,"loss_frame","j","risky",960,0,0,0,555966
"328",6,1,36,-27,0.6,69,1,"loss_frame","j","risky",892,0,0,0,564414
"329",6,1,37,-50,0.4,84,1,"loss_frame","f","safe",1124,0,0,0,573088
"330",6,1,38,-12,0.8,62,1,"loss_frame","j","risky",1067,0,0,0,581710
"331",6,1,39,-29,0.95,58,0,"loss_frame","j","risky",913,0,1,0,590173
"332",6,1,40,25,0.4,63,1,"gain_frame","f","safe",1013,0,0,0,598742
"333",6,1,41,-44,0.4,73,1,"loss_frame","f","safe",924,0,0,0,607214
"334",6,1,42,44,0.6,73,1,"gain_frame","j","risky",1542,0,0,0,616318
"335",6,1,43,31,0.95,62,0,"gain_frame","j","risky",1043,0,1,0,624919
"336",6,1,44,17,0.2,85,1,"gain_frame","f","safe",857,0,0,0,633326
"337",6,1,45,-12,0.8,61,1,"loss_frame","j","risky",1791,0,0,0,642673
"338",6,1,46,-23,0.6,58,1,"loss_frame","j","risky",813,0,0,0,651057
"339",6,1,47,-23,0.6,59,1,"loss_frame","j","risky",3437,0,0,0,662057
"340",6,1,48,47,0.6,79,1,"gain_frame","j","risky",1281,0,0,0,670890
"341",6,1,49,31,0.05,61,0,"gain_frame","f","safe",1161,0,1,0,679617
"342",6,1,50,29,0.4,72,1,"gain_frame","f","safe",2410,0,0,0,689583
"343",6,1,51,12,0.2,58,1,"gain_frame","f","safe",1675,0,0,0,698823
"344",6,1,52,-16,0.8,79,1,"loss_frame","j","risky",2880,0,0,0,709257
"345",6,1,53,16,0.2,81,1,"gain_frame","f","safe",2049,0,0,0,718857
"346",6,1,54,48,0.8,60,1,"gain_frame","j","risky",1872,0,0,0,728291
"347",6,1,55,-56,0.4,93,1,"loss_frame","f","safe",3008,0,0,0,738874
"348",6,1,56,26,0.4,66,1,"gain_frame","f","safe",3735,0,0,0,750159
"349",7,0,1,34,0.6,57,1,"gain_frame","j","risky",3164,1,0,0,145451
"350",7,0,2,-27,0.6,67,1,"loss_frame","j","risky",2031,1,0,0,155046
"351",7,1,1,37,0.6,61,1,"gain_frame","j","risky",1254,0,0,0,225071
"352",7,1,2,-33,0.95,67,0,"loss_frame","j","risky",1058,0,1,0,233701
"353",7,1,3,43,0.6,72,1,"gain_frame","f","safe",1645,0,0,0,242921
"354",7,1,4,-27,0.95,54,0,"loss_frame","j","risky",1474,0,1,0,251957
"355",7,1,5,32,0.4,79,1,"gain_frame","f","safe",1155,0,0,0,260687
"356",7,1,6,-16,0.8,80,1,"loss_frame","j","risky",1318,0,0,0,269562
"357",7,1,7,48,0.8,60,1,"gain_frame","j","risky",3032,0,0,0,280166
"358",7,1,8,11,0.2,57,1,"gain_frame","f","safe",2887,0,0,0,290614
"359",7,1,9,47,0.6,79,1,"gain_frame","f","safe",2477,0,0,0,300646
"360",7,1,10,17,0.2,87,1,"gain_frame","f","safe",2401,0,0,0,310609
"361",7,1,11,-35,0.6,86,1,"loss_frame","j","risky",2763,0,0,0,320947
"362",7,1,12,61,0.8,76,1,"gain_frame","j","risky",3343,0,0,0,331852
"363",7,1,13,53,0.6,88,1,"gain_frame","f","safe",2338,0,0,0,341759
"364",7,1,14,-50,0.4,83,1,"loss_frame","f","safe",1579,0,0,0,350891
"365",7,1,15,29,0.4,73,1,"gain_frame","f","safe",1570,0,0,0,360041
"366",7,1,16,34,0.4,86,1,"gain_frame","f","safe",1974,0,0,0,369573
"367",7,1,17,-37,0.4,62,1,"loss_frame","f","safe",2560,0,0,0,379691
"368",7,1,18,-23,0.6,59,1,"loss_frame","j","risky",1924,0,0,0,389178
"369",7,1,19,-54,0.2,67,1,"loss_frame","f","safe",1677,0,0,0,398409
"370",7,1,20,15,0.2,73,1,"gain_frame","f","safe",1622,0,0,0,407614
"371",7,1,21,-11,0.8,56,1,"loss_frame","j","risky",1337,0,0,0,416524
"372",7,1,22,60,0.8,75,1,"gain_frame","j","risky",2531,0,0,0,426613
"373",7,1,23,65,0.8,81,1,"gain_frame","j","risky",1338,0,0,0,435508
"374",7,1,24,-13,0.8,68,1,"loss_frame","f","safe",2323,0,0,0,445403
"375",7,1,25,-58,0.2,72,1,"loss_frame","f","safe",2015,0,0,0,454990
"376",7,1,26,25,0.4,62,1,"gain_frame","f","safe",2357,0,0,0,464919
"377",7,1,27,42,0.6,70,1,"gain_frame","f","safe",2229,0,0,0,474728
"378",7,1,28,-30,0.05,59,0,"loss_frame","f","safe",1287,0,1,0,483591
"379",7,1,29,-54,0.4,89,1,"loss_frame","f","safe",2138,0,0,0,493303
"380",7,1,30,34,0.6,57,1,"gain_frame","j","risky",1624,0,0,0,502495
"381",7,1,31,-40,0.4,66,1,"loss_frame","f","safe",1815,0,0,0,511881
"382",7,1,32,-43,0.4,72,1,"loss_frame","f","safe",2075,0,0,0,521521
"383",7,1,33,-14,0.8,66,1,"loss_frame","j","risky",1640,0,0,0,530725
"384",7,1,34,33,0.95,66,0,"gain_frame","j","risky",1470,0,1,0,539757
"385",7,1,35,28,0.05,57,0,"gain_frame","f","safe",1139,0,1,0,548461
"386",7,1,36,-48,0.2,60,1,"loss_frame","f","safe",1994,0,0,1,558001
"387",7,1,37,-66,0.2,83,1,"loss_frame","f","safe",2028,0,0,0,567599
"388",7,1,38,-50,0.2,62,1,"loss_frame","f","safe",1857,0,0,0,577004
"389",7,1,39,27,0.95,54,0,"gain_frame","j","risky",1243,0,1,0,585826
"390",7,1,40,49,0.8,61,1,"gain_frame","j","risky",1637,0,0,0,595018
"391",7,1,41,-31,0.6,78,1,"loss_frame","j","risky",1496,0,0,0,604085
"392",7,1,42,-45,0.4,75,1,"loss_frame","f","safe",1997,0,0,0,613650
"393",7,1,43,-29,0.6,72,1,"loss_frame","j","risky",1331,0,0,0,622554
"394",7,1,44,-18,0.8,89,1,"loss_frame","f","safe",2732,0,0,0,632863
"395",7,1,45,-33,0.6,83,1,"loss_frame","j","risky",3009,0,0,0,643441
"396",7,1,46,-11,0.8,56,1,"loss_frame","f","safe",2238,0,0,0,653235
"397",7,1,47,66,0.8,83,1,"gain_frame","j","risky",2037,0,0,0,662835
"398",7,1,48,-66,0.2,82,1,"loss_frame","f","safe",1415,0,0,0,671812
"399",7,1,49,24,0.4,60,1,"gain_frame","f","safe",1545,0,0,0,680923
"400",7,1,50,-22,0.6,55,1,"loss_frame","j","risky",2979,0,0,0,691473
"401",7,1,51,31,0.4,76,1,"gain_frame","f","safe",1337,0,0,0,700372
"402",7,1,52,12,0.2,58,1,"gain_frame","f","safe",1124,0,0,0,709068
"403",7,1,53,-31,0.05,61,0,"loss_frame","f","safe",1107,0,1,0,717757
"404",7,1,54,15,0.2,76,1,"gain_frame","f","safe",1326,0,0,0,726653
"405",7,1,55,30,0.05,60,0,"gain_frame","f","safe",891,0,1,0,735100
"406",7,1,56,17,0.2,84,1,"gain_frame","f","safe",1495,0,0,0,744166
"407",8,0,1,48,0.8,60,1,"gain_frame","j","risky",4051,1,0,0,194090
"408",8,0,2,-46,0.2,58,1,"loss_frame","f","safe",6781,1,0,0,208431
"409",8,1,1,61,0.8,76,1,"gain_frame","j","risky",3532,0,0,0,302429
"410",8,1,2,-49,0.4,81,1,"loss_frame","f","safe",3504,0,0,0,313485
"411",8,1,3,33,0.4,83,1,"gain_frame","no_choice","no_choice",-1,0,0,0,325047
"412",8,1,4,27,0.05,55,0,"gain_frame","f","safe",1662,0,1,0,334269
"413",8,1,5,29,0.4,72,1,"gain_frame","f","safe",2148,0,0,0,343975
"414",8,1,6,49,0.6,82,1,"gain_frame","j","risky",2606,0,0,0,354140
"415",8,1,7,34,0.6,57,1,"gain_frame","j","risky",2704,0,0,0,364396
"416",8,1,8,-68,0.2,85,1,"loss_frame","f","safe",2606,0,0,0,374556
"417",8,1,9,30,0.95,60,0,"gain_frame","j","risky",1768,0,1,0,383878
"418",8,1,10,-29,0.6,71,1,"loss_frame","j","risky",2591,0,0,0,394027
"419",8,1,11,-48,0.2,60,1,"loss_frame","f","safe",2408,0,0,0,403990
"420",8,1,12,11,0.2,53,1,"gain_frame","f","safe",1730,0,0,0,413275
"421",8,1,13,-26,0.95,52,0,"loss_frame","j","risky",1033,0,1,0,421861
"422",8,1,14,-25,0.6,62,1,"loss_frame","f","safe",1745,0,0,0,431162
"423",8,1,15,17,0.2,87,1,"gain_frame","f","safe",2162,0,0,0,440874
"424",8,1,16,-50,0.4,83,1,"loss_frame","f","safe",1657,0,0,0,450085
"425",8,1,17,-45,0.4,75,1,"loss_frame","f","safe",1963,0,0,0,459605
"426",8,1,18,-28,0.05,56,0,"loss_frame","f","safe",1838,0,1,0,468996
"427",8,1,19,-31,0.05,62,0,"loss_frame","f","safe",1399,0,1,0,477956
"428",8,1,20,66,0.8,83,1,"gain_frame","f","safe",1867,0,0,0,487385
"429",8,1,21,33,0.4,82,1,"gain_frame","f","safe",1774,0,0,0,496713
"430",8,1,22,-16,0.8,79,1,"loss_frame","j","risky",2253,0,0,0,506520
"431",8,1,23,29,0.4,73,1,"gain_frame","f","safe",1698,0,0,0,515768
"432",8,1,24,-43,0.2,54,1,"loss_frame","f","safe",1492,0,0,0,524819
"433",8,1,25,16,0.2,82,1,"gain_frame","f","safe",2140,0,0,0,534520
"434",8,1,26,24,0.4,61,1,"gain_frame","f","safe",2253,0,0,0,544328
"435",8,1,27,25,0.4,63,1,"gain_frame","f","safe",1818,0,0,0,553699
"436",8,1,28,11,0.2,55,1,"gain_frame","f","safe",2027,0,0,0,563288
"437",8,1,29,-31,0.95,62,0,"loss_frame","j","risky",1516,0,1,0,572359
"438",8,1,30,42,0.6,70,1,"gain_frame","j","risky",1899,0,0,0,581810
"439",8,1,31,-34,0.6,85,1,"loss_frame","j","risky",1921,0,0,0,591287
"440",8,1,32,53,0.6,88,1,"gain_frame","f","safe",2345,0,0,0,601202
"441",8,1,33,-29,0.6,73,1,"loss_frame","f","safe",2515,0,0,0,611281
"442",8,1,34,37,0.6,61,1,"gain_frame","j","risky",2410,0,0,0,621249
"443",8,1,35,-31,0.4,52,1,"loss_frame","f","safe",1637,0,0,0,630449
"444",8,1,36,61,0.8,76,1,"gain_frame","j","risky",1490,0,0,0,639494
"445",8,1,37,-14,0.8,72,1,"loss_frame","j","risky",1782,0,0,0,648833
"446",8,1,38,16,0.2,79,1,"gain_frame","f","safe",1099,0,0,0,657488
"447",8,1,39,-17,0.8,85,1,"loss_frame","f","safe",2064,0,0,0,667109
"448",8,1,40,31,0.05,62,0,"gain_frame","f","safe",1488,0,1,0,676149
"449",8,1,41,-33,0.6,82,1,"loss_frame","j","risky",1826,0,0,0,685525
"450",8,1,42,-12,0.8,59,1,"loss_frame","f","safe",1364,0,0,0,694448
"451",8,1,43,27,0.95,54,0,"gain_frame","j","risky",1286,0,1,0,703295
"452",8,1,44,-59,0.2,74,1,"loss_frame","f","safe",1933,0,0,0,712804
"453",8,1,45,-12,0.8,59,1,"loss_frame","j","risky",2455,0,0,0,722815
"454",8,1,46,70,0.8,88,1,"gain_frame","f","safe",1996,0,0,0,732372
"455",8,1,47,-16,0.8,79,1,"loss_frame","j","risky",2329,0,0,0,742255
"456",8,1,48,48,0.8,60,1,"gain_frame","f","safe",2576,0,0,0,752388
"457",8,1,49,47,0.8,58,1,"gain_frame","f","safe",2377,0,0,0,762318
"458",8,1,50,39,0.6,64,1,"gain_frame","f","safe",1902,0,0,0,771779
"459",8,1,51,-70,0.2,87,1,"loss_frame","j","risky",1660,0,0,0,781011
"460",8,1,52,-36,0.4,59,1,"loss_frame","f","safe",1591,0,0,0,790158
"461",8,1,53,-44,0.4,74,1,"loss_frame","f","safe",1578,0,0,1,799293
"462",8,1,54,16,0.2,79,1,"gain_frame","f","safe",1548,0,0,0,808403
"463",8,1,55,-62,0.2,78,1,"loss_frame","f","safe",1850,0,0,0,817805
"464",8,1,56,-28,0.6,70,1,"loss_frame","f","safe",3004,0,0,0,828370
"465",9,0,1,11,0.2,56,1,"gain_frame","f","safe",14786,1,0,0,568851
"466",9,0,2,-34,0.4,57,1,"loss_frame","f","safe",16941,1,0,0,593360
"467",9,1,1,-64,0.2,80,1,"loss_frame","f","safe",2882,0,0,0,880424
"468",9,1,2,-56,0.2,70,1,"loss_frame","f","safe",2623,0,0,0,890616
"469",9,1,3,-33,0.6,82,1,"loss_frame","j","risky",1679,0,0,0,899861
"470",9,1,4,30,0.05,60,0,"gain_frame","f","safe",2278,0,1,0,909713
"471",9,1,5,-46,0.2,58,1,"loss_frame","f","safe",1899,0,0,0,919193
"472",9,1,6,15,0.2,73,1,"gain_frame","j","risky",2914,0,0,0,929674
"473",9,1,7,55,0.8,69,1,"gain_frame","j","risky",2318,0,0,0,939570
"474",9,1,8,50,0.6,83,1,"gain_frame","j","risky",1364,0,0,0,948505
"475",9,1,9,13,0.2,66,1,"gain_frame","f","safe",2580,0,0,0,958670
"476",9,1,10,-13,0.8,63,1,"loss_frame","j","risky",881,0,0,0,967123
"477",9,1,11,30,0.95,59,0,"gain_frame","j","risky",897,0,1,0,975587
"478",9,1,12,-39,0.4,65,1,"loss_frame","j","risky",2369,0,0,0,985539
"479",9,1,13,-43,0.4,72,1,"loss_frame","j","risky",2102,0,0,1,995212
"480",9,1,14,34,0.4,84,1,"gain_frame","j","risky",1983,0,0,0,1004764
"481",9,1,15,-16,0.8,78,1,"loss_frame","j","risky",689,0,0,0,1013028
"482",9,1,16,-50,0.4,83,1,"loss_frame","j","risky",2021,0,0,0,1022624
"483",9,1,17,-12,0.8,64,1,"loss_frame","j","risky",1911,0,0,0,1032106
"484",9,1,18,29,0.95,57,0,"gain_frame","j","risky",1100,0,1,0,1040765
"485",9,1,19,47,0.8,59,1,"gain_frame","j","risky",3177,0,0,0,1051509
"486",9,1,20,23,0.4,58,1,"gain_frame","j","risky",2199,0,0,0,1061286
"487",9,1,21,29,0.4,74,1,"gain_frame","j","risky",2338,0,0,0,1071190
"488",9,1,22,17,0.2,84,1,"gain_frame","j","risky",3018,0,0,0,1081782
"489",9,1,23,-30,0.95,60,0,"loss_frame","j","risky",1794,0,1,0,1091158
"490",9,1,24,63,0.8,79,1,"gain_frame","j","risky",2760,0,0,0,1101503
"491",9,1,25,-30,0.6,75,1,"loss_frame","j","risky",2294,0,0,0,1111375
"492",9,1,26,-49,0.2,61,1,"loss_frame","f","safe",3368,0,0,0,1122302
"493",9,1,27,-24,0.6,61,1,"loss_frame","j","risky",2168,0,0,0,1132048
"494",9,1,28,-30,0.4,50,1,"loss_frame","j","risky",2055,0,0,0,1141684
"495",9,1,29,43,0.6,72,1,"gain_frame","j","risky",1166,0,0,0,1150408
"496",9,1,30,54,0.6,89,1,"gain_frame","j","risky",2241,0,0,0,1160233
"497",9,1,31,-29,0.05,57,0,"loss_frame","f","safe",2692,0,1,0,1170497
"498",9,1,32,42,0.6,71,1,"gain_frame","j","risky",1504,0,0,0,1179577
"499",9,1,33,28,0.05,56,0,"gain_frame","f","safe",1899,0,1,0,1189057
"500",9,1,34,-17,0.8,85,1,"loss_frame","f","safe",3222,0,0,0,1199858
"501",9,1,35,56,0.8,70,1,"gain_frame","j","risky",2363,0,0,0,1209802
"502",9,1,36,17,0.2,87,1,"gain_frame","f","safe",2377,0,0,0,1219742
"503",9,1,37,-31,0.05,62,0,"loss_frame","f","safe",1472,0,1,0,1228786
"504",9,1,38,-58,0.2,72,1,"loss_frame","f","safe",2933,0,0,0,1239295
"505",9,1,39,35,0.4,87,1,"gain_frame","j","risky",1555,0,0,0,1248419
"506",9,1,40,11,0.2,53,1,"gain_frame","j","risky",2330,0,0,0,1258315
"507",9,1,41,-34,0.4,56,1,"loss_frame","j","risky",1859,0,0,0,1267719
"508",9,1,42,24,0.4,59,1,"gain_frame","j","risky",2337,0,0,0,1277620
"509",9,1,43,30,0.6,50,1,"gain_frame","j","risky",2535,0,0,0,1287732
"510",9,1,44,-70,0.2,88,1,"loss_frame","j","risky",2983,0,0,0,1298282
"511",9,1,45,-27,0.6,67,1,"loss_frame","j","risky",2377,0,0,0,1308232
"512",9,1,46,-54,0.4,89,1,"loss_frame","j","risky",1384,0,0,0,1317183
"513",9,1,47,-14,0.8,69,1,"loss_frame","f","safe",3070,0,0,0,1327839
"514",9,1,48,49,0.8,61,1,"gain_frame","j","risky",3164,0,0,0,1338575
"515",9,1,49,-14,0.8,73,1,"loss_frame","f","safe",3333,0,0,0,1349479
"516",9,1,50,12,0.2,61,1,"gain_frame","j","risky",2835,0,0,0,1359879
"517",9,1,51,-31,0.6,78,1,"loss_frame","j","risky",2534,0,0,0,1369983
"518",9,1,52,68,0.8,84,1,"gain_frame","f","safe",2741,0,0,0,1380296
"519",9,1,53,29,0.4,73,1,"gain_frame","j","risky",1761,0,0,0,1389631
"520",9,1,54,40,0.6,66,1,"gain_frame","f","safe",3311,0,0,0,1400520
"521",9,1,55,-30,0.6,75,1,"loss_frame","j","risky",3427,0,0,0,1411529
"522",9,1,56,-28,0.95,56,0,"loss_frame","j","risky",1425,0,1,0,1420521
"523",10,0,1,12,0.2,59,1,"gain_frame","f","safe",32827,1,0,0,427288
"524",10,0,2,-24,0.6,60,1,"loss_frame","f","safe",18448,1,0,0,453298
"525",10,1,1,-30,0.95,60,0,"loss_frame","j","risky",1968,0,1,0,531094
"526",10,1,2,-30,0.95,60,0,"loss_frame","j","risky",2322,0,1,0,540977
"527",10,1,3,-14,0.8,72,1,"loss_frame","f","safe",2816,0,0,0,551365
"528",10,1,4,23,0.4,58,1,"gain_frame","f","safe",2208,0,0,0,561144
"529",10,1,5,31,0.4,78,1,"gain_frame","f","safe",2122,0,0,0,570836
"530",10,1,6,-61,0.2,76,1,"loss_frame","no_choice","no_choice",-1,0,0,0,582415
"531",10,1,7,35,0.4,87,1,"gain_frame","f","safe",2442,0,0,0,592414
"532",10,1,8,37,0.6,62,1,"gain_frame","f","safe",3096,0,0,0,603076
"533",10,1,9,32,0.95,63,0,"gain_frame","j","risky",1112,0,1,0,611757
"534",10,1,10,-10,0.8,49,1,"loss_frame","j","risky",3224,0,0,0,622554
"535",10,1,11,-29,0.6,72,1,"loss_frame","f","safe",3176,0,0,0,633292
"536",10,1,12,44,0.6,74,1,"gain_frame","j","risky",1520,0,0,0,642368
"537",10,1,13,-31,0.05,61,0,"loss_frame","f","safe",3699,0,1,0,653631
"538",10,1,14,11,0.2,55,1,"gain_frame","j","risky",1987,0,0,0,663186
"539",10,1,15,47,0.6,79,1,"gain_frame","j","risky",2008,0,0,0,672769
"540",10,1,16,31,0.05,61,0,"gain_frame","f","safe",1544,0,1,0,681877
"541",10,1,17,-14,0.8,70,1,"loss_frame","f","safe",2992,0,0,0,692440
"542",10,1,18,-31,0.6,77,1,"loss_frame","j","risky",3748,0,0,0,703759
"543",10,1,19,27,0.4,68,1,"gain_frame","j","risky",3720,0,0,0,715051
"544",10,1,20,29,0.4,71,1,"gain_frame","j","risky",2658,0,0,0,725262
"545",10,1,21,-41,0.4,69,1,"loss_frame","j","risky",2668,0,0,0,735489
"546",10,1,22,-30,0.05,60,0,"loss_frame","f","safe",1707,0,1,0,744757
"547",10,1,23,23,0.4,57,1,"gain_frame","j","risky",2418,0,0,0,754740
"548",10,1,24,-34,0.4,57,1,"loss_frame","j","risky",1795,0,0,0,764108
"549",10,1,25,27,0.05,54,0,"gain_frame","f","safe",1744,0,1,0,773427
"550",10,1,26,-51,0.4,86,1,"loss_frame","j","risky",2944,0,0,0,783947
"551",10,1,27,45,0.8,56,1,"gain_frame","f","safe",2236,0,0,0,793751
"552",10,1,28,-18,0.8,86,1,"loss_frame","f","safe",2513,0,0,0,803825
"553",10,1,29,32,0.6,54,1,"gain_frame","f","safe",3188,0,0,0,814569
"554",10,1,30,-46,0.4,76,1,"loss_frame","j","risky",3976,0,0,0,826119
"555",10,1,31,-25,0.6,63,1,"loss_frame","f","safe",3545,0,0,0,837219
"556",10,1,32,57,0.8,72,1,"gain_frame","f","safe",2434,0,0,0,847207
"557",10,1,33,42,0.6,70,1,"gain_frame","f","safe",3580,0,0,0,858356
"558",10,1,34,-50,0.2,63,1,"loss_frame","j","risky",2952,0,0,0,868868
"559",10,1,35,-66,0.2,83,1,"loss_frame","j","risky",2304,0,0,0,878910
"560",10,1,36,-54,0.2,67,1,"loss_frame","j","risky",1968,0,0,1,888445
"561",10,1,37,13,0.2,65,1,"gain_frame","j","risky",1634,0,0,0,897642
"562",10,1,38,-54,0.4,90,1,"loss_frame","f","safe",1868,0,0,0,907066
"563",10,1,39,-48,0.2,60,1,"loss_frame","j","risky",2600,0,0,0,917237
"564",10,1,40,27,0.95,54,0,"gain_frame","j","risky",2515,0,1,0,927313
"565",10,1,41,55,0.6,91,1,"gain_frame","f","safe",2472,0,0,0,937344
"566",10,1,42,16,0.2,81,1,"gain_frame","j","risky",2436,0,0,0,947347
"567",10,1,43,-27,0.6,69,1,"loss_frame","f","safe",2644,0,0,0,957564
"568",10,1,44,-39,0.4,65,1,"loss_frame","j","risky",2952,0,0,0,968091
"569",10,1,45,-12,0.8,61,1,"loss_frame","f","safe",2539,0,0,0,978188
"570",10,1,46,-22,0.6,55,1,"loss_frame","f","safe",3253,0,0,0,989009
"571",10,1,47,18,0.2,90,1,"gain_frame","j","risky",2120,0,0,0,998697
"572",10,1,48,16,0.2,79,1,"gain_frame","j","risky",1363,0,0,0,1007618
"573",10,1,49,66,0.8,82,1,"gain_frame","f","safe",1595,0,0,0,1016777
"574",10,1,50,-65,0.2,81,1,"loss_frame","j","risky",1960,0,0,0,1026301
"575",10,1,51,65,0.8,81,1,"gain_frame","f","safe",1667,0,0,0,1035534
"576",10,1,52,-17,0.8,84,1,"loss_frame","f","safe",1636,0,0,0,1044713
"577",10,1,53,-34,0.6,85,1,"loss_frame","f","safe",1576,0,0,0,1053854
"578",10,1,54,43,0.8,54,1,"gain_frame","f","safe",1984,0,0,0,1063398
"579",10,1,55,13,0.2,65,1,"gain_frame","j","risky",1669,0,0,0,1072643
"580",10,1,56,59,0.8,74,1,"gain_frame","f","safe",1328,0,0,0,1081535
"581",11,0,1,32,0.6,54,1,"gain_frame","f","safe",2290,1,0,0,134253
"582",11,0,2,-11,0.8,57,1,"loss_frame","j","risky",1770,1,0,0,143597
"583",11,1,1,-70,0.2,87,1,"loss_frame","j","risky",2552,0,0,0,220912
"584",11,1,2,-44,0.4,73,1,"loss_frame","f","safe",2062,0,0,0,230547
"585",11,1,3,-47,0.2,59,1,"loss_frame","f","safe",1945,0,0,0,240050
"586",11,1,4,36,0.4,91,1,"gain_frame","j","risky",1908,0,0,0,249518
"587",11,1,5,56,0.8,70,1,"gain_frame","j","risky",1990,0,0,0,259086
"588",11,1,6,-16,0.8,80,1,"loss_frame","j","risky",1638,0,0,0,268301
"589",11,1,7,-24,0.6,59,1,"loss_frame","f","safe",2111,0,0,0,277984
"590",11,1,8,34,0.6,56,1,"gain_frame","j","risky",1875,0,0,0,287444
"591",11,1,9,64,0.8,80,1,"gain_frame","j","risky",1806,0,0,0,296827
"592",11,1,10,-47,0.2,59,1,"loss_frame","f","safe",1973,0,0,0,306371
"593",11,1,11,-31,0.6,78,1,"loss_frame","f","safe",1901,0,0,0,315840
"594",11,1,12,26,0.4,65,1,"gain_frame","f","safe",2821,0,0,0,326221
"595",11,1,13,-15,0.8,77,1,"loss_frame","f","safe",2118,0,0,0,335917
"596",11,1,14,40,0.6,66,1,"gain_frame","j","risky",2415,0,0,0,345897
"597",11,1,15,27,0.95,54,0,"gain_frame","j","risky",2393,0,1,0,355862
"598",11,1,16,59,0.8,74,1,"gain_frame","j","risky",2494,0,0,0,365935
"599",11,1,17,52,0.6,86,1,"gain_frame","f","safe",2808,0,0,0,376307
"600",11,1,18,-29,0.95,58,0,"loss_frame","j","risky",2037,0,1,0,385918
"601",11,1,19,17,0.2,84,1,"gain_frame","f","safe",2889,0,0,0,396372
"602",11,1,20,66,0.8,83,1,"gain_frame","j","risky",2155,0,0,0,406101
"603",11,1,21,-13,0.8,64,1,"loss_frame","f","safe",2757,0,0,0,416437
"604",11,1,22,47,0.8,58,1,"gain_frame","j","risky",2754,0,0,0,426760
"605",11,1,23,-31,0.95,62,0,"loss_frame","j","risky",2249,0,1,0,436571
"606",11,1,24,51,0.6,85,1,"gain_frame","f","safe",1957,0,0,0,446105
"607",11,1,25,-16,0.8,82,1,"loss_frame","f","safe",2250,0,0,0,455930
"608",11,1,26,-35,0.6,87,1,"loss_frame","j","risky",2802,0,0,1,466295
"609",11,1,27,12,0.2,59,1,"gain_frame","j","risky",2694,0,0,0,476569
"610",11,1,28,-28,0.6,71,1,"loss_frame","j","risky",2041,0,0,0,486176
"611",11,1,29,-67,0.2,84,1,"loss_frame","f","safe",2676,0,0,0,496416
"612",11,1,30,35,0.6,59,1,"gain_frame","j","risky",2724,0,0,0,506711
"613",11,1,31,38,0.6,64,1,"gain_frame","j","risky",2201,0,0,0,516479
"614",11,1,32,-45,0.4,75,1,"loss_frame","f","safe",2686,0,0,0,526734
"615",11,1,33,26,0.4,66,1,"gain_frame","j","risky",2243,0,0,0,536556
"616",11,1,34,-38,0.4,63,1,"loss_frame","f","safe",2406,0,0,0,546540
"617",11,1,35,29,0.4,72,1,"gain_frame","j","risky",2541,0,0,0,556652
"618",11,1,36,-12,0.8,60,1,"loss_frame","j","risky",2935,0,0,0,567143
"619",11,1,37,34,0.05,67,0,"gain_frame","f","safe",2087,0,1,0,576811
"620",11,1,38,-37,0.4,62,1,"loss_frame","f","safe",2062,0,0,0,586450
"621",11,1,39,22,0.4,56,1,"gain_frame","f","safe",2668,0,0,0,596686
"622",11,1,40,-23,0.6,58,1,"loss_frame","f","safe",2072,0,0,0,606322
"623",11,1,41,15,0.2,77,1,"gain_frame","f","safe",2468,0,0,0,616361
"624",11,1,42,12,0.2,60,1,"gain_frame","j","risky",2422,0,0,0,626352
"625",11,1,43,-59,0.2,74,1,"loss_frame","j","risky",3014,0,0,0,636944
"626",11,1,44,13,0.2,66,1,"gain_frame","j","risky",1608,0,0,0,646123
"627",11,1,45,33,0.4,82,1,"gain_frame","f","safe",2595,0,0,0,656294
"628",11,1,46,51,0.8,64,1,"gain_frame","j","risky",2064,0,0,0,665922
"629",11,1,47,-47,0.4,78,1,"loss_frame","j","risky",2125,0,0,0,675622
"630",11,1,48,-31,0.05,62,0,"loss_frame","f","safe",2467,0,1,0,685661
"631",11,1,49,-14,0.8,71,1,"loss_frame","f","safe",2152,0,0,0,695380
"632",11,1,50,30,0.05,60,0,"gain_frame","f","safe",2109,0,1,0,705052
"633",11,1,51,-32,0.6,81,1,"loss_frame","f","safe",2577,0,0,0,715199
"634",11,1,52,-54,0.2,68,1,"loss_frame","f","safe",2143,0,0,0,724915
"635",11,1,53,31,0.95,63,0,"gain_frame","j","risky",2802,0,1,0,735305
"636",11,1,54,17,0.2,87,1,"gain_frame","j","risky",2456,0,0,0,745345
"637",11,1,55,-49,0.4,81,1,"loss_frame","f","safe",2847,0,0,0,755766
"638",11,1,56,-30,0.05,61,0,"loss_frame","f","safe",2891,0,1,0,766232
"639",12,0,1,11,0.2,54,1,"gain_frame","j","risky",15717,1,0,0,652209
"640",12,0,2,-47,0.2,59,1,"loss_frame","j","risky",6613,1,0,0,666425
"641",12,1,1,33,0.05,66,0,"gain_frame","f","safe",2927,0,1,0,740668
"642",12,1,2,-16,0.8,81,1,"loss_frame","j","risky",2453,0,0,0,750702
"643",12,1,3,31,0.4,78,1,"gain_frame","f","safe",2796,0,0,0,761135
"644",12,1,4,-34,0.4,57,1,"loss_frame","j","risky",2296,0,0,0,771005
"645",12,1,5,-37,0.4,62,1,"loss_frame","f","safe",2840,0,0,0,781435
"646",12,1,6,12,0.2,62,1,"gain_frame","j","risky",2034,0,0,0,791066
"647",12,1,7,61,0.8,76,1,"gain_frame","j","risky",2163,0,0,0,800817
"648",12,1,8,48,0.6,80,1,"gain_frame","j","risky",2546,0,0,0,810948
"649",12,1,9,-16,0.8,81,1,"loss_frame","j","risky",2355,0,0,0,820862
"650",12,1,10,42,0.6,71,1,"gain_frame","f","safe",2910,0,0,1,831350
"651",12,1,11,24,0.4,61,1,"gain_frame","f","safe",2769,0,0,0,841717
"652",12,1,12,-30,0.95,59,0,"loss_frame","j","risky",2117,0,1,0,851428
"653",12,1,13,50,0.8,63,1,"gain_frame","j","risky",2370,0,0,0,861376
"654",12,1,14,-44,0.4,74,1,"loss_frame","f","safe",2281,0,0,0,871232
"655",12,1,15,28,0.05,55,0,"gain_frame","f","safe",1999,0,1,0,880812
"656",12,1,16,30,0.4,76,1,"gain_frame","j","risky",3388,0,0,0,891810
"657",12,1,17,40,0.6,67,1,"gain_frame","j","risky",1911,0,0,0,901314
"658",12,1,18,-40,0.4,67,1,"loss_frame","j","risky",2728,0,0,0,911658
"659",12,1,19,-35,0.6,86,1,"loss_frame","j","risky",1855,0,0,0,921110
"660",12,1,20,-11,0.8,59,1,"loss_frame","j","risky",1596,0,0,0,930302
"661",12,1,21,-52,0.2,65,1,"loss_frame","f","safe",2903,0,0,0,940779
"662",12,1,22,-14,0.8,69,1,"loss_frame","j","risky",1365,0,0,0,949734
"663",12,1,23,-58,0.2,72,1,"loss_frame","j","risky",2066,0,0,0,959394
"664",12,1,24,32,0.4,81,1,"gain_frame","f","safe",2459,0,0,0,969460
"665",12,1,25,-53,0.2,66,1,"loss_frame","j","risky",2858,0,0,0,979912
"666",12,1,26,18,0.2,89,1,"gain_frame","j","risky",2076,0,0,0,989579
"667",12,1,27,28,0.95,57,0,"gain_frame","j","risky",1436,0,1,0,998611
"668",12,1,28,-30,0.95,60,0,"loss_frame","j","risky",1884,0,1,0,1008084
"669",12,1,29,-25,0.6,61,1,"loss_frame","j","risky",2594,0,0,0,1018247
"670",12,1,30,23,0.4,58,1,"gain_frame","j","risky",2316,0,0,0,1028150
"671",12,1,31,-66,0.2,82,1,"loss_frame","j","risky",2389,0,0,0,1038153
"672",12,1,32,47,0.8,59,1,"gain_frame","j","risky",2725,0,0,0,1048453
"673",12,1,33,30,0.95,59,0,"gain_frame","j","risky",2112,0,1,0,1058162
"674",12,1,34,71,0.8,89,1,"gain_frame","f","safe",1956,0,0,0,1067717
"675",12,1,35,34,0.4,86,1,"gain_frame","j","risky",2989,0,0,0,1078292
"676",12,1,36,-14,0.8,68,1,"loss_frame","j","risky",2386,0,0,0,1088243
"677",12,1,37,14,0.2,72,1,"gain_frame","j","risky",2379,0,0,0,1098190
"678",12,1,38,12,0.2,62,1,"gain_frame","j","risky",1284,0,0,0,1107076
"679",12,1,39,-28,0.6,69,1,"loss_frame","j","risky",3082,0,0,0,1117744
"680",12,1,40,-70,0.2,87,1,"loss_frame","no_choice","no_choice",-1,0,0,0,1129358
"681",12,1,41,-31,0.05,63,0,"loss_frame","f","safe",2009,0,1,0,1138966
"682",12,1,42,49,0.6,82,1,"gain_frame","j","risky",1991,0,0,0,1148547
"683",12,1,43,36,0.6,60,1,"gain_frame","j","risky",1611,0,0,0,1157736
"684",12,1,44,-44,0.2,55,1,"loss_frame","j","risky",2212,0,0,0,1167541
"685",12,1,45,-54,0.4,90,1,"loss_frame","f","safe",2357,0,0,0,1177482
"686",12,1,46,71,0.8,89,1,"gain_frame","j","risky",1730,0,0,0,1186799
"687",12,1,47,-30,0.05,60,0,"loss_frame","f","safe",2103,0,1,0,1196473
"688",12,1,48,14,0.2,72,1,"gain_frame","j","risky",3068,0,0,0,1207148
"689",12,1,49,-28,0.6,70,1,"loss_frame","j","risky",2661,0,0,0,1217404
"690",12,1,50,43,0.6,72,1,"gain_frame","f","safe",2417,0,0,0,1227407
"691",12,1,51,16,0.2,80,1,"gain_frame","j","risky",2006,0,0,0,1236979
"692",12,1,52,-49,0.4,82,1,"loss_frame","f","safe",2330,0,0,0,1246892
"693",12,1,53,-36,0.6,90,1,"loss_frame","f","safe",2840,0,0,0,1257324
"694",12,1,54,59,0.8,74,1,"gain_frame","j","risky",1764,0,0,0,1266690
"695",12,1,55,-26,0.6,64,1,"loss_frame","f","safe",2390,0,0,0,1276652
"696",12,1,56,-13,0.8,64,1,"loss_frame","j","risky",1718,0,0,0,1285940
"697",13,0,1,12,0.2,58,1,"gain_frame","j","risky",8391,1,0,0,60677
"698",13,0,2,-42,0.2,52,1,"loss_frame","j","risky",3041,1,0,0,71292
"699",13,1,1,44,0.6,73,1,"gain_frame","j","risky",1929,0,0,0,167908
"700",13,1,2,57,0.8,72,1,"gain_frame","f","safe",1163,0,0,0,176644
"701",13,1,3,-28,0.05,55,0,"loss_frame","f","safe",2448,0,1,0,186660
"702",13,1,4,-12,0.8,60,1,"loss_frame","j","risky",1395,0,0,0,195636
"703",13,1,5,-46,0.2,57,1,"loss_frame","f","safe",1100,0,0,0,204300
"704",13,1,6,60,0.8,75,1,"gain_frame","f","safe",3753,0,0,1,215620
"705",13,1,7,43,0.6,71,1,"gain_frame","j","risky",767,0,0,0,223944
"706",13,1,8,28,0.05,57,0,"gain_frame","f","safe",1523,0,1,0,233052
"707",13,1,9,28,0.4,71,1,"gain_frame","j","risky",2159,0,0,0,242785
"708",13,1,10,-54,0.2,68,1,"loss_frame","j","risky",2289,0,0,0,252644
"709",13,1,11,27,0.4,68,1,"gain_frame","f","safe",2435,0,0,0,262647
"710",13,1,12,45,0.8,56,1,"gain_frame","j","risky",1810,0,0,0,272020
"711",13,1,13,-15,0.8,77,1,"loss_frame","f","safe",2223,0,0,0,281818
"712",13,1,14,-43,0.4,72,1,"loss_frame","j","risky",2109,0,0,0,291480
"713",13,1,15,16,0.2,78,1,"gain_frame","f","safe",2228,0,0,0,301259
"714",13,1,16,15,0.2,73,1,"gain_frame","j","risky",1631,0,0,0,310459
"715",13,1,17,-25,0.6,62,1,"loss_frame","j","risky",1350,0,0,0,319378
"716",13,1,18,32,0.05,64,0,"gain_frame","f","safe",1079,0,1,0,328023
"717",13,1,19,29,0.95,59,0,"gain_frame","j","risky",3266,0,1,0,338866
"718",13,1,20,-30,0.6,75,1,"loss_frame","f","safe",1628,0,0,0,348059
"719",13,1,21,-15,0.8,78,1,"loss_frame","j","risky",1291,0,0,0,356919
"720",13,1,22,-28,0.95,55,0,"loss_frame","j","risky",2014,0,1,0,366513
"721",13,1,23,19,0.4,49,1,"gain_frame","f","safe",1231,0,0,0,375307
"722",13,1,24,32,0.4,81,1,"gain_frame","f","safe",1473,0,0,0,384336
"723",13,1,25,-66,0.2,82,1,"loss_frame","f","safe",2265,0,0,0,394159
"724",13,1,26,-30,0.6,75,1,"loss_frame","j","risky",1000,0,0,0,402722
"725",13,1,27,11,0.2,57,1,"gain_frame","f","safe",1705,0,0,0,411995
"726",13,1,28,-28,0.05,56,0,"loss_frame","f","safe",2386,0,1,0,421955
"727",13,1,29,-43,0.4,72,1,"loss_frame","f","safe",1765,0,0,0,431283
"728",13,1,30,71,0.8,88,1,"gain_frame","f","safe",1653,0,0,0,440507
"729",13,1,31,38,0.6,63,1,"gain_frame","j","risky",2154,0,0,0,450239
"730",13,1,32,34,0.4,84,1,"gain_frame","f","safe",1268,0,0,0,459075
"731",13,1,33,25,0.4,63,1,"gain_frame","f","safe",1809,0,0,0,468466
"732",13,1,34,-63,0.2,79,1,"loss_frame","j","risky",2014,0,0,0,478055
"733",13,1,35,-13,0.8,63,1,"loss_frame","j","risky",2751,0,0,0,488354
"734",13,1,36,44,0.8,55,1,"gain_frame","f","safe",2116,0,0,0,498050
"735",13,1,37,-36,0.6,89,1,"loss_frame","j","risky",1805,0,0,0,507423
"736",13,1,38,-50,0.4,83,1,"loss_frame","f","safe",1636,0,0,0,516634
"737",13,1,39,-48,0.4,79,1,"loss_frame","j","risky",1720,0,0,0,525909
"738",13,1,40,-58,0.2,72,1,"loss_frame","f","safe",2203,0,0,0,535690
"739",13,1,41,-39,0.4,65,1,"loss_frame","j","risky",1663,0,0,0,544912
"740",13,1,42,73,0.8,92,1,"gain_frame","f","safe",1464,0,0,0,553926
"741",13,1,43,18,0.2,88,1,"gain_frame","f","safe",931,0,0,0,562425
"742",13,1,44,38,0.6,63,1,"gain_frame","j","risky",1594,0,0,0,571590
"743",13,1,45,49,0.6,81,1,"gain_frame","f","safe",1605,0,0,0,580749
"744",13,1,46,-15,0.8,75,1,"loss_frame","j","risky",1725,0,0,0,590038
"745",13,1,47,-23,0.6,57,1,"loss_frame","f","safe",2192,0,0,0,599802
"746",13,1,48,15,0.2,75,1,"gain_frame","f","safe",845,0,0,0,608221
"747",13,1,49,30,0.95,60,0,"gain_frame","j","risky",1206,0,1,0,616975
"748",13,1,50,13,0.2,66,1,"gain_frame","f","safe",747,0,0,0,625270
"749",13,1,51,-17,0.8,86,1,"loss_frame","j","risky",1331,0,0,0,634162
"750",13,1,52,-50,0.2,63,1,"loss_frame","f","safe",904,0,0,0,642649
"751",13,1,53,-34,0.6,84,1,"loss_frame","j","risky",1743,0,0,0,651976
"752",13,1,54,-29,0.95,58,0,"loss_frame","j","risky",1491,0,1,0,661006
"753",13,1,55,-33,0.4,56,1,"loss_frame","f","safe",1240,0,0,0,669807
"754",13,1,56,47,0.6,78,1,"gain_frame","f","safe",1223,0,0,0,678610
"755",14,0,1,37,0.6,61,1,"gain_frame","j","risky",1413,1,0,0,109065
"756",14,0,2,-49,0.2,61,1,"loss_frame","f","safe",1157,1,0,0,117743
"757",14,1,1,48,0.6,80,1,"gain_frame","j","risky",1614,0,0,0,181296
"758",14,1,2,29,0.4,72,1,"gain_frame","f","safe",1633,0,0,0,190447
"759",14,1,3,-28,0.6,70,1,"loss_frame","j","risky",1543,0,0,0,199509
"760",14,1,4,-38,0.4,63,1,"loss_frame","j","risky",1901,0,0,0,208928
"761",14,1,5,-46,0.2,58,1,"loss_frame","j","risky",1281,0,0,0,217726
"762",14,1,6,68,0.8,84,1,"gain_frame","j","risky",1302,0,0,0,226545
"763",14,1,7,29,0.05,58,0,"gain_frame","f","safe",1010,0,1,0,235072
"764",14,1,8,29,0.95,59,0,"gain_frame","j","risky",933,0,1,0,243522
"765",14,1,9,-18,0.8,86,1,"loss_frame","j","risky",1442,0,0,0,252479
"766",14,1,10,59,0.8,73,1,"gain_frame","j","risky",2662,0,0,0,262659
"767",14,1,11,-42,0.4,69,1,"loss_frame","j","risky",2037,0,0,0,272215
"768",14,1,12,34,0.6,56,1,"gain_frame","j","risky",1644,0,0,0,281377
"769",14,1,13,-27,0.6,67,1,"loss_frame","j","risky",1672,0,0,0,290567
"770",14,1,14,17,0.2,84,1,"gain_frame","f","safe",1015,0,0,0,299096
"771",14,1,15,-18,0.8,87,1,"loss_frame","j","risky",1937,0,0,0,308551
"772",14,1,16,-41,0.4,69,1,"loss_frame","j","risky",1939,0,0,0,318008
"773",14,1,17,15,0.2,75,1,"gain_frame","f","safe",2496,0,0,0,328023
"774",14,1,18,-63,0.2,79,1,"loss_frame","j","risky",1792,0,0,0,337332
"775",14,1,19,-67,0.2,84,1,"loss_frame","f","safe",2945,0,0,0,347796
"776",14,1,20,44,0.8,55,1,"gain_frame","f","safe",1399,0,0,0,356712
"777",14,1,21,-13,0.8,63,1,"loss_frame","f","safe",1367,0,0,0,365597
"778",14,1,22,-67,0.2,84,1,"loss_frame","f","safe",1075,0,0,0,374188
"779",14,1,23,13,0.2,64,1,"gain_frame","j","risky",2574,0,0,0,384279
"780",14,1,24,-25,0.6,63,1,"loss_frame","j","risky",1986,0,0,0,393780
"781",14,1,25,-25,0.6,63,1,"loss_frame","f","safe",1665,0,0,0,402962
"782",14,1,26,49,0.6,82,1,"gain_frame","j","risky",752,0,0,0,411232
"783",14,1,27,69,0.8,86,1,"gain_frame","f","safe",1415,0,0,0,420165
"784",14,1,28,-34,0.95,68,0,"loss_frame","j","risky",962,0,1,0,428656
"785",14,1,29,12,0.2,61,1,"gain_frame","j","risky",2090,0,0,0,438264
"786",14,1,30,-28,0.05,56,0,"loss_frame","f","safe",1365,0,1,0,447147
"787",14,1,31,-31,0.6,78,1,"loss_frame","j","risky",1443,0,0,0,456106
"788",14,1,32,38,0.6,63,1,"gain_frame","j","risky",1169,0,0,0,464794
"789",14,1,33,-15,0.8,74,1,"loss_frame","f","safe",996,0,0,0,473309
"790",14,1,34,-37,0.4,61,1,"loss_frame","j","risky",1505,0,0,0,482332
"791",14,1,35,16,0.2,78,1,"gain_frame","f","safe",1438,0,0,0,491286
"792",14,1,36,-30,0.05,59,0,"loss_frame","f","safe",1196,0,1,0,499999
"793",14,1,37,28,0.4,71,1,"gain_frame","j","risky",1463,0,0,0,508981
"794",14,1,38,44,0.8,55,1,"gain_frame","j","risky",852,0,0,0,517349
"795",14,1,39,-15,0.8,76,1,"loss_frame","j","risky",708,0,0,0,525574
"796",14,1,40,35,0.4,88,1,"gain_frame","j","risky",1432,0,0,0,534532
"797",14,1,41,62,0.8,78,1,"gain_frame","j","risky",1147,0,0,0,543198
"798",14,1,42,44,0.6,74,1,"gain_frame","j","risky",1361,0,0,0,552077
"799",14,1,43,-61,0.2,76,1,"loss_frame","f","safe",1045,0,0,0,560639
"800",14,1,44,26,0.4,65,1,"gain_frame","f","safe",2664,0,0,0,570821
"801",14,1,45,-12,0.8,57,1,"loss_frame","f","safe",1067,0,0,0,579403
"802",14,1,46,-29,0.95,58,0,"loss_frame","j","risky",863,0,1,0,587784
"803",14,1,47,25,0.4,62,1,"gain_frame","j","risky",2171,0,0,0,597472
"804",14,1,48,-52,0.4,87,1,"loss_frame","j","risky",1420,0,0,0,606409
"805",14,1,49,31,0.95,61,0,"gain_frame","j","risky",1078,0,1,0,615003
"806",14,1,50,48,0.6,80,1,"gain_frame","j","risky",1251,0,0,0,623769
"807",14,1,51,15,0.2,77,1,"gain_frame","j","risky",1786,0,0,0,633071
"808",14,1,52,28,0.05,56,0,"gain_frame","f","safe",1534,0,1,0,642129
"809",14,1,53,-50,0.4,84,1,"loss_frame","j","risky",2148,0,0,0,651795
"810",14,1,54,32,0.4,80,1,"gain_frame","f","safe",1059,0,0,0,660373
"811",14,1,55,-32,0.6,81,1,"loss_frame","j","risky",1012,0,0,0,668901
"812",14,1,56,-49,0.2,61,1,"loss_frame","f","safe",1541,0,0,1,677962
"813",15,0,1,12,0.2,62,1,"gain_frame","j","risky",14361,1,0,0,133363
"814",15,0,2,-13,0.8,64,1,"loss_frame","j","risky",6182,1,0,0,147103
"815",15,1,1,-46,0.4,77,1,"loss_frame","j","risky",3864,0,0,0,226721
"816",15,1,2,-33,0.05,65,0,"loss_frame","f","safe",2562,0,1,0,236837
"817",15,1,3,24,0.05,49,0,"gain_frame","j","risky",3027,0,1,0,247425
"818",15,1,4,12,0.2,61,1,"gain_frame","f","safe",2624,0,0,0,257608
"819",15,1,5,43,0.6,72,1,"gain_frame","j","risky",992,0,0,0,266151
"820",15,1,6,-58,0.2,73,1,"loss_frame","f","safe",3360,0,0,0,277064
"821",15,1,7,-29,0.6,73,1,"loss_frame","j","risky",1025,0,0,1,285640
"822",15,1,8,13,0.2,66,1,"gain_frame","j","risky",3638,0,0,0,296835
"823",15,1,9,-28,0.95,56,0,"loss_frame","f","safe",3468,0,1,0,307864
"824",15,1,10,29,0.4,72,1,"gain_frame","j","risky",1879,0,0,0,317315
"825",15,1,11,16,0.2,82,1,"gain_frame","f","safe",2855,0,0,0,327732
"826",15,1,12,59,0.8,74,1,"gain_frame","j","risky",1934,0,0,0,337225
"827",15,1,13,-17,0.8,86,1,"loss_frame","f","safe",3025,0,0,0,347802
"828",15,1,14,-11,0.8,55,1,"loss_frame","j","risky",788,0,0,0,356149
"829",15,1,15,32,0.95,65,0,"gain_frame","j","risky",939,0,1,0,364650
"830",15,1,16,51,0.6,85,1,"gain_frame","f","safe",1459,0,0,0,373669
"831",15,1,17,-15,0.8,76,1,"loss_frame","f","safe",2011,0,0,0,383238
"832",15,1,18,51,0.6,85,1,"gain_frame","j","risky",3106,0,0,0,393899
"833",15,1,19,36,0.6,61,1,"gain_frame","f","safe",1432,0,0,0,402886
"834",15,1,20,-35,0.4,58,1,"loss_frame","j","risky",2319,0,0,0,412763
"835",15,1,21,15,0.2,77,1,"gain_frame","f","safe",2944,0,0,0,423259
"836",15,1,22,46,0.8,58,1,"gain_frame","j","risky",2373,0,0,0,433191
"837",15,1,23,-28,0.05,55,0,"loss_frame","j","risky",2391,0,1,0,443136
"838",15,1,24,66,0.8,82,1,"gain_frame","j","risky",442,0,0,0,451129
"839",15,1,25,46,0.8,58,1,"gain_frame","f","safe",1156,0,0,0,459844
"840",15,1,26,-50,0.2,62,1,"loss_frame","j","risky",398,0,0,0,467799
"841",15,1,27,37,0.4,92,1,"gain_frame","no_choice","no_choice",-1,0,0,0,479359
"842",15,1,28,-43,0.4,71,1,"loss_frame","j","risky",1264,0,0,0,488181
"843",15,1,29,24,0.4,60,1,"gain_frame","j","risky",2423,0,0,0,498160
"844",15,1,30,30,0.05,61,0,"gain_frame","f","safe",967,0,1,0,506688
"845",15,1,31,-70,0.2,87,1,"loss_frame","j","risky",1804,0,0,0,516053
"846",15,1,32,32,0.4,80,1,"gain_frame","j","risky",330,0,0,0,523942
"847",15,1,33,-46,0.4,77,1,"loss_frame","f","safe",1030,0,0,0,532528
"848",15,1,34,56,0.8,70,1,"gain_frame","j","risky",493,0,0,0,540599
"849",15,1,35,-25,0.6,63,1,"loss_frame","f","safe",418,0,0,0,548566
"850",15,1,36,15,0.2,76,1,"gain_frame","j","risky",522,0,0,0,556641
"851",15,1,37,-32,0.6,80,1,"loss_frame","f","safe",571,0,0,0,564774
"852",15,1,38,-49,0.2,61,1,"loss_frame","j","risky",451,0,0,0,572786
"853",15,1,39,-28,0.95,56,0,"loss_frame","f","safe",487,0,1,0,580834
"854",15,1,40,-30,0.6,74,1,"loss_frame","j","risky",2064,0,0,0,590455
"855",15,1,41,-62,0.2,77,1,"loss_frame","j","risky",2263,0,0,0,600273
"856",15,1,42,-23,0.6,58,1,"loss_frame","j","risky",829,0,0,0,608664
"857",15,1,43,-34,0.4,57,1,"loss_frame","j","risky",1344,0,0,0,617561
"858",15,1,44,30,0.95,59,0,"gain_frame","j","risky",3185,0,1,0,628297
"859",15,1,45,-18,0.8,89,1,"loss_frame","j","risky",1143,0,0,0,636995
"860",15,1,46,-11,0.8,54,1,"loss_frame","f","safe",2840,0,0,0,647396
"861",15,1,47,38,0.6,63,1,"gain_frame","j","risky",564,0,0,0,655524
"862",15,1,48,22,0.4,56,1,"gain_frame","f","safe",869,0,0,0,663956
"863",15,1,49,-33,0.6,81,1,"loss_frame","j","risky",674,0,0,0,672185
"864",15,1,50,16,0.2,80,1,"gain_frame","f","safe",2250,0,0,0,681994
"865",15,1,51,-15,0.8,75,1,"loss_frame","j","risky",1046,0,0,0,690596
"866",15,1,52,-66,0.2,83,1,"loss_frame","f","safe",1487,0,0,0,699643
"867",15,1,53,-52,0.4,87,1,"loss_frame","j","risky",654,0,0,0,707851
"868",15,1,54,61,0.8,77,1,"gain_frame","f","safe",1312,0,0,0,716715
"869",15,1,55,29,0.4,73,1,"gain_frame","j","risky",2371,0,0,0,726646
"870",15,1,56,41,0.6,69,1,"gain_frame","f","safe",355,0,0,0,734566
"871",16,0,1,50,0.8,63,1,"gain_frame","f","safe",9242,1,0,0,105323
"872",16,0,2,-48,0.2,60,1,"loss_frame","j","risky",6513,1,0,0,119404
"873",16,1,1,-48,0.2,60,1,"loss_frame","j","risky",2129,0,0,1,174261
"874",16,1,2,31,0.6,51,1,"gain_frame","j","risky",2019,0,0,0,183830
"875",16,1,3,50,0.6,83,1,"gain_frame","j","risky",1496,0,0,0,192879
"876",16,1,4,12,0.2,62,1,"gain_frame","f","safe",1919,0,0,0,202359
"877",16,1,5,18,0.2,89,1,"gain_frame","f","safe",1788,0,0,0,211686
"878",16,1,6,-68,0.2,85,1,"loss_frame","j","risky",3002,0,0,0,222231
"879",16,1,7,45,0.6,74,1,"gain_frame","j","risky",1405,0,0,0,231183
"880",16,1,8,-24,0.6,60,1,"loss_frame","j","risky",1046,0,0,0,239775
"881",16,1,9,63,0.8,79,1,"gain_frame","j","risky",1114,0,0,0,248436
"882",16,1,10,30,0.95,61,0,"gain_frame","j","risky",1158,0,1,0,257136
"883",16,1,11,-32,0.6,79,1,"loss_frame","j","risky",1316,0,0,0,266016
"884",16,1,12,56,0.8,71,1,"gain_frame","j","risky",1356,0,0,0,274916
"885",16,1,13,31,0.4,78,1,"gain_frame","f","safe",1036,0,0,0,283505
"886",16,1,14,-43,0.4,71,1,"loss_frame","f","safe",1101,0,0,0,292145
"887",16,1,15,28,0.4,71,1,"gain_frame","f","safe",1262,0,0,0,300955
"888",16,1,16,-12,0.8,63,1,"loss_frame","j","risky",805,0,0,0,309297
"889",16,1,17,-58,0.2,73,1,"loss_frame","f","safe",887,0,0,0,317730
"890",16,1,18,-27,0.6,68,1,"loss_frame","j","risky",781,0,0,0,326057
"891",16,1,19,33,0.95,66,0,"gain_frame","j","risky",874,0,1,0,334482
"892",16,1,20,28,0.05,56,0,"gain_frame","f","safe",1126,0,1,0,343146
"893",16,1,21,-33,0.95,66,0,"loss_frame","j","risky",774,0,1,0,351478
"894",16,1,22,-12,0.8,63,1,"loss_frame","j","risky",1690,0,0,0,360715
"895",16,1,23,-32,0.6,80,1,"loss_frame","j","risky",849,0,0,0,369115
"896",16,1,24,-36,0.4,61,1,"loss_frame","f","safe",946,0,0,0,377611
"897",16,1,25,-15,0.8,74,1,"loss_frame","j","risky",736,0,0,0,385899
"898",16,1,26,55,0.8,69,1,"gain_frame","j","risky",1399,0,0,0,394853
"899",16,1,27,27,0.4,67,1,"gain_frame","f","safe",1108,0,0,0,403529
"900",16,1,28,-31,0.6,77,1,"loss_frame","j","risky",1362,0,0,0,412445
"901",16,1,29,-59,0.2,74,1,"loss_frame","f","safe",1059,0,0,0,421062
"902",16,1,30,-14,0.8,73,1,"loss_frame","j","risky",787,0,0,0,429417
"903",16,1,31,45,0.8,57,1,"gain_frame","j","risky",810,0,0,0,437810
"904",16,1,32,-49,0.4,82,1,"loss_frame","f","safe",1319,0,0,0,446685
"905",16,1,33,33,0.4,82,1,"gain_frame","f","safe",981,0,0,0,455205
"906",16,1,34,-69,0.2,86,1,"loss_frame","j","risky",1607,0,0,0,464358
"907",16,1,35,12,0.2,58,1,"gain_frame","j","risky",1152,0,0,0,473079
"908",16,1,36,14,0.2,71,1,"gain_frame","j","risky",1505,0,0,0,482155
"909",16,1,37,-40,0.4,67,1,"loss_frame","j","risky",975,0,0,0,490687
"910",16,1,38,-35,0.4,59,1,"loss_frame","j","risky",1468,0,0,0,499721
"911",16,1,39,13,0.2,65,1,"gain_frame","f","safe",1239,0,0,0,508521
"912",16,1,40,30,0.05,60,0,"gain_frame","f","safe",1026,0,1,0,517104
"913",16,1,41,-30,0.05,59,0,"loss_frame","f","safe",2247,0,1,0,526920
"914",16,1,42,37,0.6,62,1,"gain_frame","j","risky",843,0,0,0,535307
"915",16,1,43,69,0.8,86,1,"gain_frame","j","risky",947,0,0,0,543808
"916",16,1,44,-22,0.6,55,1,"loss_frame","j","risky",1150,0,0,0,552499
"917",16,1,45,50,0.8,62,1,"gain_frame","j","risky",1185,0,0,0,561227
"918",16,1,46,17,0.2,87,1,"gain_frame","f","safe",950,0,0,0,569716
"919",16,1,47,29,0.4,72,1,"gain_frame","j","risky",901,0,0,0,578161
"920",16,1,48,51,0.6,84,1,"gain_frame","j","risky",866,0,0,0,586577
"921",16,1,49,-16,0.8,80,1,"loss_frame","j","risky",767,0,0,0,594898
"922",16,1,50,-29,0.05,58,0,"loss_frame","f","safe",883,0,1,0,603332
"923",16,1,51,-16,0.8,82,1,"loss_frame","j","risky",648,0,0,0,611539
"924",16,1,52,-51,0.4,85,1,"loss_frame","f","safe",1424,0,0,0,620532
"925",16,1,53,-47,0.2,59,1,"loss_frame","j","risky",1210,0,0,0,629282
"926",16,1,54,-28,0.95,56,0,"loss_frame","j","risky",731,0,1,0,637565
"927",16,1,55,43,0.6,72,1,"gain_frame","j","risky",713,0,0,0,645845
"928",16,1,56,23,0.4,57,1,"gain_frame","f","safe",1391,0,0,0,654779
"929",17,0,1,51,0.8,63,1,"gain_frame","j","risky",4247,1,0,0,74639
"930",17,0,2,-34,0.4,56,1,"loss_frame","f","safe",4646,1,0,0,86849
"931",17,1,1,-12,0.8,62,1,"loss_frame","j","risky",2034,0,0,0,138348
"932",17,1,2,-16,0.8,80,1,"loss_frame","j","risky",2218,0,0,0,148140
"933",17,1,3,37,0.6,62,1,"gain_frame","f","safe",3104,0,0,0,158808
"934",17,1,4,49,0.8,61,1,"gain_frame","j","risky",1679,0,0,0,168048
"935",17,1,5,65,0.8,81,1,"gain_frame","f","safe",3018,0,0,0,178625
"936",17,1,6,64,0.8,80,1,"gain_frame","j","risky",2843,0,0,0,189041
"937",17,1,7,-31,0.05,63,0,"loss_frame","no_choice","no_choice",-1,0,1,0,200621
"938",17,1,8,60,0.8,75,1,"gain_frame","j","risky",2040,0,0,0,210222
"939",17,1,9,12,0.2,59,1,"gain_frame","f","safe",1949,0,0,0,219742
"940",17,1,10,-33,0.4,54,1,"loss_frame","j","risky",2604,0,0,0,229910
"941",17,1,11,-63,0.2,79,1,"loss_frame","j","risky",2357,0,0,0,239836
"942",17,1,12,33,0.95,67,0,"gain_frame","j","risky",2568,0,1,0,249973
"943",17,1,13,32,0.6,53,1,"gain_frame","f","safe",3504,0,0,0,261047
"944",17,1,14,16,0.2,79,1,"gain_frame","j","risky",3461,0,0,0,272083
"945",17,1,15,-49,0.2,61,1,"loss_frame","j","risky",1762,0,0,0,281415
"946",17,1,16,46,0.8,57,1,"gain_frame","f","safe",2571,0,0,0,291556
"947",17,1,17,-16,0.8,79,1,"loss_frame","j","risky",1729,0,0,0,300845
"948",17,1,18,42,0.6,70,1,"gain_frame","j","risky",1979,0,0,0,310374
"949",17,1,19,32,0.95,64,0,"gain_frame","j","risky",2739,0,1,0,320661
"950",17,1,20,-33,0.6,82,1,"loss_frame","j","risky",2686,0,0,0,330904
"951",17,1,21,-55,0.4,92,1,"loss_frame","f","safe",2557,0,0,0,341020
"952",17,1,22,27,0.4,66,1,"gain_frame","f","safe",2844,0,0,0,351425
"953",17,1,23,-46,0.2,58,1,"loss_frame","j","risky",2332,0,0,0,361325
"954",17,1,24,-38,0.4,63,1,"loss_frame","f","safe",1709,0,0,0,370580
"955",17,1,25,-33,0.6,82,1,"loss_frame","j","risky",1645,0,0,0,379773
"956",17,1,26,45,0.6,75,1,"gain_frame","j","risky",770,0,0,0,388103
"957",17,1,27,-16,0.8,81,1,"loss_frame","j","risky",1664,0,0,0,397305
"958",17,1,28,-23,0.6,58,1,"loss_frame","j","risky",1168,0,0,0,406033
"959",17,1,29,31,0.4,78,1,"gain_frame","j","risky",1974,0,0,0,415573
"960",17,1,30,-41,0.4,68,1,"loss_frame","j","risky",1214,0,0,0,424325
"961",17,1,31,-12,0.8,60,1,"loss_frame","j","risky",2233,0,0,0,434101
"962",17,1,32,29,0.05,58,0,"gain_frame","f","safe",1501,0,1,0,443166
"963",17,1,33,-31,0.95,62,0,"loss_frame","j","risky",1305,0,1,0,452023
"964",17,1,34,-25,0.6,62,1,"loss_frame","f","safe",2177,0,0,0,461761
"965",17,1,35,16,0.2,78,1,"gain_frame","j","risky",2063,0,0,0,471400
"966",17,1,36,13,0.2,67,1,"gain_frame","j","risky",2389,0,0,1,481347
"967",17,1,37,51,0.6,85,1,"gain_frame","j","risky",1529,0,0,0,490440
"968",17,1,38,57,0.8,71,1,"gain_frame","f","safe",1391,0,0,0,499388
"969",17,1,39,16,0.2,82,1,"gain_frame","j","risky",1628,0,0,0,508583
"970",17,1,40,-29,0.6,72,1,"loss_frame","j","risky",991,0,0,0,517128
"971",17,1,41,24,0.4,61,1,"gain_frame","f","safe",1317,0,0,0,526002
"972",17,1,42,-28,0.95,57,0,"loss_frame","j","risky",1075,0,1,0,534636
"973",17,1,43,-58,0.2,72,1,"loss_frame","j","risky",1581,0,0,0,543780
"974",17,1,44,-51,0.4,86,1,"loss_frame","j","risky",1466,0,0,0,552813
"975",17,1,45,-41,0.4,68,1,"loss_frame","f","safe",676,0,0,0,561052
"976",17,1,46,30,0.05,60,0,"gain_frame","f","safe",1316,0,1,0,569933
"977",17,1,47,23,0.4,59,1,"gain_frame","j","risky",1289,0,0,0,578789
"978",17,1,48,-26,0.6,65,1,"loss_frame","j","risky",1493,0,0,0,587861
"979",17,1,49,47,0.6,78,1,"gain_frame","j","risky",709,0,0,0,596150
"980",17,1,50,-71,0.2,89,1,"loss_frame","f","safe",420,0,0,0,604121
"981",17,1,51,-17,0.8,87,1,"loss_frame","j","risky",814,0,0,0,612494
"982",17,1,52,34,0.4,85,1,"gain_frame","f","safe",1317,0,0,0,621377
"983",17,1,53,-30,0.05,60,0,"loss_frame","f","safe",1469,0,1,0,630430
"984",17,1,54,34,0.4,84,1,"gain_frame","f","safe",1173,0,0,0,639174
"985",17,1,55,12,0.2,62,1,"gain_frame","f","safe",1168,0,0,0,647911
"986",17,1,56,-56,0.2,70,1,"loss_frame","f","safe",1228,0,0,0,656719
"987",18,0,1,37,0.6,62,1,"gain_frame","f","safe",4455,1,0,0,141365
"988",18,0,2,-35,0.4,58,1,"loss_frame","f","safe",10922,1,0,0,159858
"989",18,1,1,-66,0.2,83,1,"loss_frame","no_choice","no_choice",-1,0,0,0,234960
"990",18,1,2,28,0.4,71,1,"gain_frame","f","safe",2001,0,0,0,244516
"991",18,1,3,-43,0.4,72,1,"loss_frame","f","safe",2186,0,0,0,254278
"992",18,1,4,67,0.8,83,1,"gain_frame","f","safe",2449,0,0,0,264293
"993",18,1,5,28,0.4,71,1,"gain_frame","f","safe",2094,0,0,0,273963
"994",18,1,6,-15,0.8,74,1,"loss_frame","j","risky",2096,0,0,0,283624
"995",18,1,7,-31,0.05,62,0,"loss_frame","f","safe",1585,0,1,0,292786
"996",18,1,8,-33,0.4,55,1,"loss_frame","f","safe",1693,0,0,0,302036
"997",18,1,9,35,0.4,87,1,"gain_frame","f","safe",1774,0,0,0,311387
"998",18,1,10,11,0.2,56,1,"gain_frame","f","safe",1605,0,0,0,320559
"999",18,1,11,-29,0.95,57,0,"loss_frame","j","risky",1227,0,1,0,329358
"1000",18,1,12,-25,0.6,62,1,"loss_frame","j","risky",1699,0,0,0,338617
"1001",18,1,13,24,0.4,59,1,"gain_frame","f","safe",1599,0,0,0,347789
"1002",18,1,14,-50,0.2,63,1,"loss_frame","f","safe",1555,0,0,0,356920
"1003",18,1,15,42,0.6,70,1,"gain_frame","j","risky",1733,0,0,0,366214
"1004",18,1,16,41,0.6,69,1,"gain_frame","j","risky",1815,0,0,0,375603
"1005",18,1,17,-45,0.4,75,1,"loss_frame","f","safe",1508,0,0,0,384685
"1006",18,1,18,-27,0.6,67,1,"loss_frame","j","risky",1506,0,0,0,393766
"1007",18,1,19,-53,0.2,66,1,"loss_frame","f","safe",1285,0,0,0,402617
"1008",18,1,20,31,0.05,62,0,"gain_frame","f","safe",1530,0,1,0,411722
"1009",18,1,21,15,0.2,73,1,"gain_frame","j","risky",1593,0,0,0,420874
"1010",18,1,22,43,0.8,54,1,"gain_frame","j","risky",1755,0,0,0,430212
"1011",18,1,23,17,0.2,84,1,"gain_frame","j","risky",1912,0,0,0,439691
"1012",18,1,24,-11,0.8,56,1,"loss_frame","j","risky",1538,0,0,0,448807
"1013",18,1,25,-17,0.8,86,1,"loss_frame","j","risky",1449,0,0,0,457834
"1014",18,1,26,-64,0.2,80,1,"loss_frame","j","risky",1911,0,0,0,467327
"1015",18,1,27,29,0.05,58,0,"gain_frame","f","safe",1751,0,1,0,476638
"1016",18,1,28,-32,0.6,80,1,"loss_frame","j","risky",1654,0,0,0,485849
"1017",18,1,29,-35,0.4,58,1,"loss_frame","f","safe",2366,0,0,0,495791
"1018",18,1,30,63,0.8,79,1,"gain_frame","f","safe",1202,0,0,0,504574
"1019",18,1,31,-60,0.2,75,1,"loss_frame","j","risky",2947,0,0,0,515077
"1020",18,1,32,31,0.95,63,0,"gain_frame","j","risky",1505,0,1,0,524138
"1021",18,1,33,-13,0.8,64,1,"loss_frame","j","risky",2259,0,0,0,533971
"1022",18,1,34,-30,0.95,60,0,"loss_frame","j","risky",1150,0,1,0,542685
"1023",18,1,35,32,0.4,80,1,"gain_frame","f","safe",2384,0,0,0,552635
"1024",18,1,36,14,0.2,68,1,"gain_frame","f","safe",2666,0,0,0,562876
"1025",18,1,37,-49,0.4,82,1,"loss_frame","j","risky",2513,0,0,0,572947
"1026",18,1,38,50,0.6,84,1,"gain_frame","j","risky",1995,0,0,0,582510
"1027",18,1,39,35,0.6,58,1,"gain_frame","j","risky",2153,0,0,0,592226
"1028",18,1,40,38,0.6,64,1,"gain_frame","f","safe",2402,0,0,0,602194
"1029",18,1,41,-16,0.8,82,1,"loss_frame","j","risky",1615,0,0,0,611383
"1030",18,1,42,-66,0.2,83,1,"loss_frame","f","safe",2595,0,0,0,621553
"1031",18,1,43,18,0.2,88,1,"gain_frame","j","risky",2988,0,0,0,632120
"1032",18,1,44,-31,0.6,78,1,"loss_frame","j","risky",1610,0,0,0,641293
"1033",18,1,45,28,0.95,57,0,"gain_frame","j","risky",1186,0,1,0,650039
"1034",18,1,46,57,0.8,71,1,"gain_frame","j","risky",1906,0,0,0,659508
"1035",18,1,47,50,0.6,83,1,"gain_frame","j","risky",2180,0,0,0,669257
"1036",18,1,48,48,0.8,59,1,"gain_frame","j","risky",2051,0,0,0,678884
"1037",18,1,49,-14,0.8,70,1,"loss_frame","j","risky",1344,0,0,1,687811
"1038",18,1,50,-23,0.6,56,1,"loss_frame","f","safe",2380,0,0,0,697771
"1039",18,1,51,-29,0.6,73,1,"loss_frame","f","safe",2058,0,0,0,707403
"1040",18,1,52,57,0.8,71,1,"gain_frame","j","risky",1462,0,0,0,716435
"1041",18,1,53,25,0.4,62,1,"gain_frame","f","safe",1754,0,0,0,725743
"1042",18,1,54,-52,0.4,86,1,"loss_frame","f","safe",2730,0,0,0,736038
"1043",18,1,55,12,0.2,58,1,"gain_frame","f","safe",2131,0,0,0,745733
"1044",18,1,56,-32,0.05,63,0,"loss_frame","f","safe",1461,0,1,0,754760
"1045",19,0,1,12,0.2,62,1,"gain_frame","j","risky",6798,1,0,0,144852
"1046",19,0,2,-47,0.2,59,1,"loss_frame","f","safe",8077,1,0,0,160520
"1047",19,1,1,28,0.4,70,1,"gain_frame","f","safe",2280,0,0,0,226607
"1048",19,1,2,53,0.8,66,1,"gain_frame","j","risky",983,0,0,0,235146
"1049",19,1,3,-68,0.2,85,1,"loss_frame","j","risky",2897,0,0,0,245598
"1050",19,1,4,-36,0.4,60,1,"loss_frame","f","safe",2380,0,0,0,255559
"1051",19,1,5,32,0.05,64,0,"gain_frame","j","risky",2362,0,1,0,265473
"1052",19,1,6,-52,0.4,87,1,"loss_frame","f","safe",2390,0,0,0,275439
"1053",19,1,7,-44,0.4,73,1,"loss_frame","f","safe",2489,0,0,0,285500
"1054",19,1,8,-31,0.6,77,1,"loss_frame","j","risky",2674,0,0,0,295732
"1055",19,1,9,-46,0.4,77,1,"loss_frame","f","safe",3007,0,0,0,306320
"1056",19,1,10,-15,0.8,76,1,"loss_frame","f","safe",3505,0,0,0,317397
"1057",19,1,11,-29,0.6,73,1,"loss_frame","f","safe",1554,0,0,0,326515
"1058",19,1,12,55,0.8,69,1,"gain_frame","f","safe",1971,0,0,0,336065
"1059",19,1,13,29,0.4,74,1,"gain_frame","j","risky",1763,0,0,0,345419
"1060",19,1,14,13,0.2,64,1,"gain_frame","j","risky",1770,0,0,0,354762
"1061",19,1,15,34,0.6,57,1,"gain_frame","f","safe",2375,0,0,0,364719
"1062",19,1,16,-36,0.4,60,1,"loss_frame","j","risky",1499,0,0,0,373780
"1063",19,1,17,34,0.4,85,1,"gain_frame","j","risky",2872,0,0,0,384200
"1064",19,1,18,33,0.95,66,0,"gain_frame","j","risky",1538,0,1,0,393309
"1065",19,1,19,35,0.6,58,1,"gain_frame","f","safe",1326,0,0,0,402209
"1066",19,1,20,70,0.8,87,1,"gain_frame","f","safe",2276,0,0,0,412063
"1067",19,1,21,-32,0.05,64,0,"loss_frame","j","risky",1980,0,1,0,421631
"1068",19,1,22,50,0.8,62,1,"gain_frame","f","safe",1561,0,0,0,430755
"1069",19,1,23,-13,0.8,62,1,"loss_frame","j","risky",2394,0,0,0,440752
"1070",19,1,24,25,0.4,63,1,"gain_frame","j","risky",2911,0,0,0,451246
"1071",19,1,25,-52,0.4,87,1,"loss_frame","f","safe",3495,0,0,0,462304
"1072",19,1,26,-56,0.2,70,1,"loss_frame","j","risky",1174,0,0,0,471049
"1073",19,1,27,-11,0.8,57,1,"loss_frame","f","safe",2050,0,0,0,480678
"1074",19,1,28,52,0.6,87,1,"gain_frame","j","risky",2176,0,0,0,490437
"1075",19,1,29,18,0.2,89,1,"gain_frame","j","risky",3326,0,0,0,501323
"1076",19,1,30,24,0.4,60,1,"gain_frame","f","safe",3234,0,0,0,512121
"1077",19,1,31,-36,0.6,90,1,"loss_frame","j","risky",3488,0,0,0,523195
"1078",19,1,32,-29,0.95,58,0,"loss_frame","j","risky",2741,0,1,0,533522
"1079",19,1,33,-47,0.2,59,1,"loss_frame","f","safe",1858,0,0,0,542924
"1080",19,1,34,64,0.8,80,1,"gain_frame","j","risky",1174,0,0,0,551661
"1081",19,1,35,17,0.2,85,1,"gain_frame","f","safe",2992,0,0,0,562218
"1082",19,1,36,-21,0.6,52,1,"loss_frame","j","risky",1836,0,0,0,571620
"1083",19,1,37,33,0.4,82,1,"gain_frame","j","risky",2098,0,0,0,581290
"1084",19,1,38,-54,0.2,68,1,"loss_frame","j","risky",2359,0,0,0,591194
"1085",19,1,39,-14,0.8,68,1,"loss_frame","j","risky",1769,0,0,0,600509
"1086",19,1,40,51,0.6,85,1,"gain_frame","j","risky",2744,0,0,0,610845
"1087",19,1,41,-18,0.8,87,1,"loss_frame","j","risky",1784,0,0,0,620222
"1088",19,1,42,68,0.8,85,1,"gain_frame","f","safe",2725,0,0,0,630526
"1089",19,1,43,42,0.6,71,1,"gain_frame","f","safe",733,0,0,0,638810
"1090",19,1,44,-29,0.05,57,0,"loss_frame","f","safe",3085,0,1,1,649469
"1091",19,1,45,-25,0.6,63,1,"loss_frame","j","risky",673,0,0,0,657700
"1092",19,1,46,13,0.2,63,1,"gain_frame","j","risky",3077,0,0,0,668362
"1093",19,1,47,11,0.2,55,1,"gain_frame","j","risky",3123,0,0,0,679069
"1094",19,1,48,-66,0.2,83,1,"loss_frame","no_choice","no_choice",-1,0,0,0,690641
"1095",19,1,49,41,0.6,68,1,"gain_frame","f","safe",2524,0,0,0,700709
"1096",19,1,50,-37,0.6,93,1,"loss_frame","j","risky",1427,0,0,0,709694
"1097",19,1,51,-46,0.2,58,1,"loss_frame","j","risky",2918,0,0,0,720182
"1098",19,1,52,14,0.2,69,1,"gain_frame","j","risky",2876,0,0,0,730637
"1099",19,1,53,-16,0.8,83,1,"loss_frame","j","risky",1715,0,0,0,739911
"1100",19,1,54,29,0.05,58,0,"gain_frame","f","safe",2446,0,1,0,749940
"1101",19,1,55,31,0.95,61,0,"gain_frame","j","risky",1426,0,1,0,758945
"1102",19,1,56,-27,0.95,55,0,"loss_frame","j","risky",1554,0,1,0,768100
"1103",20,0,1,38,0.6,64,1,"gain_frame","j","risky",1856,1,0,0,82785
"1104",20,0,2,-25,0.6,62,1,"loss_frame","f","safe",3690,1,0,0,94035
"1105",20,1,1,-69,0.2,86,1,"loss_frame","no_choice","no_choice",-1,0,0,0,159314
"1106",20,1,2,68,0.8,85,1,"gain_frame","j","risky",968,0,0,0,167848
"1107",20,1,3,45,0.6,75,1,"gain_frame","j","risky",986,0,0,0,176388
"1108",20,1,4,16,0.2,81,1,"gain_frame","f","safe",2036,0,0,0,185980
"1109",20,1,5,-60,0.2,75,1,"loss_frame","j","risky",2598,0,0,0,196125
"1110",20,1,6,26,0.4,64,1,"gain_frame","j","risky",2169,0,0,0,205837
"1111",20,1,7,-25,0.6,63,1,"loss_frame","f","safe",1502,0,0,0,214878
"1112",20,1,8,-13,0.8,63,1,"loss_frame","f","safe",1128,0,0,0,223574
"1113",20,1,9,24,0.4,60,1,"gain_frame","j","risky",2030,0,0,0,233151
"1114",20,1,10,62,0.8,77,1,"gain_frame","j","risky",1979,0,0,0,242685
"1115",20,1,11,51,0.8,64,1,"gain_frame","j","risky",1478,0,0,0,251728
"1116",20,1,12,-29,0.95,58,0,"loss_frame","j","risky",1705,0,1,0,260985
"1117",20,1,13,-25,0.6,63,1,"loss_frame","f","safe",1809,0,0,0,270342
"1118",20,1,14,30,0.05,60,0,"gain_frame","f","safe",1787,0,1,0,279679
"1119",20,1,15,52,0.6,86,1,"gain_frame","f","safe",1857,0,0,0,289093
"1120",20,1,16,-28,0.05,56,0,"loss_frame","f","safe",1819,0,1,0,298464
"1121",20,1,17,49,0.8,61,1,"gain_frame","j","risky",1599,0,0,0,307624
"1122",20,1,18,-12,0.8,61,1,"loss_frame","f","safe",1130,0,0,0,316302
"1123",20,1,19,-43,0.2,54,1,"loss_frame","f","safe",1909,0,0,0,325768
"1124",20,1,20,30,0.4,75,1,"gain_frame","f","safe",2140,0,0,0,335475
"1125",20,1,21,-35,0.6,87,1,"loss_frame","j","risky",2159,0,0,0,345192
"1126",20,1,22,16,0.2,82,1,"gain_frame","j","risky",1868,0,0,0,354602
"1127",20,1,23,-16,0.8,80,1,"loss_frame","j","risky",1351,0,0,0,363513
"1128",20,1,24,-36,0.4,60,1,"loss_frame","f","safe",2205,0,0,0,373284
"1129",20,1,25,31,0.95,63,0,"gain_frame","j","risky",1190,0,1,0,382041
"1130",20,1,26,-15,0.8,74,1,"loss_frame","f","safe",1515,0,0,0,391117
"1131",20,1,27,-42,0.4,70,1,"loss_frame","j","risky",2261,0,0,1,400941
"1132",20,1,28,-35,0.4,59,1,"loss_frame","j","risky",2493,0,0,0,410996
"1133",20,1,29,32,0.4,80,1,"gain_frame","f","safe",2039,0,0,0,420604
"1134",20,1,30,-58,0.2,73,1,"loss_frame","j","risky",2610,0,0,0,430762
"1135",20,1,31,62,0.8,78,1,"gain_frame","j","risky",1107,0,0,0,439425
"1136",20,1,32,-42,0.4,70,1,"loss_frame","j","risky",1500,0,0,0,448481
"1137",20,1,33,-45,0.2,56,1,"loss_frame","j","risky",2424,0,0,0,458451
"1138",20,1,34,-14,0.8,71,1,"loss_frame","f","safe",1221,0,0,0,467227
"1139",20,1,35,-17,0.8,87,1,"loss_frame","f","safe",1532,0,0,0,476306
"1140",20,1,36,-28,0.6,71,1,"loss_frame","j","risky",1279,0,0,0,485139
"1141",20,1,37,29,0.4,72,1,"gain_frame","f","safe",1846,0,0,0,494540
"1142",20,1,38,12,0.2,59,1,"gain_frame","j","risky",1764,0,0,0,503852
"1143",20,1,39,-29,0.95,59,0,"loss_frame","j","risky",1654,0,1,0,513055
"1144",20,1,40,16,0.2,82,1,"gain_frame","j","risky",1774,0,0,0,522374
"1145",20,1,41,56,0.8,70,1,"gain_frame","j","risky",1391,0,0,0,531336
"1146",20,1,42,34,0.4,84,1,"gain_frame","f","safe",1807,0,0,0,540704
"1147",20,1,43,-32,0.05,63,0,"loss_frame","f","safe",1802,0,1,0,550055
"1148",20,1,44,43,0.6,71,1,"gain_frame","f","safe",1974,0,0,0,559588
"1149",20,1,45,-52,0.4,87,1,"loss_frame","j","risky",2319,0,0,0,569445
"1150",20,1,46,-36,0.6,89,1,"loss_frame","j","risky",2098,0,0,0,579093
"1151",20,1,47,34,0.6,57,1,"gain_frame","f","safe",1443,0,0,0,588087
"1152",20,1,48,54,0.6,90,1,"gain_frame","j","risky",1864,0,0,0,597512
"1153",20,1,49,34,0.05,67,0,"gain_frame","f","safe",1405,0,1,0,606480
"1154",20,1,50,-49,0.4,81,1,"loss_frame","j","risky",2101,0,0,0,616146
"1155",20,1,51,-66,0.2,83,1,"loss_frame","j","risky",1688,0,0,0,625398
"1156",20,1,52,-24,0.6,60,1,"loss_frame","j","risky",1024,0,0,0,633983
"1157",20,1,53,11,0.2,55,1,"gain_frame","j","risky",1564,0,0,0,643098
"1158",20,1,54,29,0.95,57,0,"gain_frame","j","risky",1120,0,1,0,651786
"1159",20,1,55,14,0.2,72,1,"gain_frame","j","risky",1426,0,0,0,660790
"1160",20,1,56,36,0.6,61,1,"gain_frame","f","safe",1534,0,0,0,669879
"1161",21,0,1,24,0.4,60,1,"gain_frame","f","safe",5611,1,0,0,111672
"1162",21,0,2,-36,0.4,60,1,"loss_frame","f","safe",3239,1,0,0,122507
"1163",21,1,1,-43,0.4,71,1,"loss_frame","j","risky",3373,0,0,0,192957
"1164",21,1,2,30,0.95,61,0,"gain_frame","j","risky",1724,0,1,0,202284
"1165",21,1,3,16,0.2,82,1,"gain_frame","f","safe",2026,0,0,0,211906
"1166",21,1,4,-27,0.6,67,1,"loss_frame","j","risky",1079,0,0,0,220568
"1167",21,1,5,70,0.8,87,1,"gain_frame","j","risky",778,0,0,0,228962
"1168",21,1,6,-43,0.2,54,1,"loss_frame","f","safe",1087,0,0,0,237622
"1169",21,1,7,-41,0.4,69,1,"loss_frame","f","safe",3556,0,0,0,248776
"1170",21,1,8,61,0.8,76,1,"gain_frame","f","safe",1892,0,0,0,258226
"1171",21,1,9,-25,0.6,63,1,"loss_frame","j","risky",1689,0,0,0,267503
"1172",21,1,10,35,0.4,87,1,"gain_frame","f","safe",2042,0,0,0,277136
"1173",21,1,11,12,0.2,58,1,"gain_frame","j","risky",1180,0,0,0,285933
"1174",21,1,12,28,0.05,56,0,"gain_frame","f","safe",2311,0,1,0,295845
"1175",21,1,13,-29,0.95,59,0,"loss_frame","j","risky",1393,0,1,0,304815
"1176",21,1,14,-11,0.8,56,1,"loss_frame","f","safe",1676,0,0,0,314106
"1177",21,1,15,50,0.6,83,1,"gain_frame","f","safe",1941,0,0,0,323628
"1178",21,1,16,-17,0.8,84,1,"loss_frame","f","safe",3092,0,0,0,334308
"1179",21,1,17,-50,0.4,83,1,"loss_frame","f","safe",2786,0,0,0,344681
"1180",21,1,18,-59,0.2,74,1,"loss_frame","j","risky",1450,0,0,0,353755
"1181",21,1,19,31,0.05,62,0,"gain_frame","f","safe",2198,0,1,0,363566
"1182",21,1,20,57,0.8,71,1,"gain_frame","j","risky",1869,0,0,0,373035
"1183",21,1,21,33,0.6,55,1,"gain_frame","f","safe",2553,0,0,0,383177
"1184",21,1,22,63,0.8,79,1,"gain_frame","f","safe",879,0,0,0,391623
"1185",21,1,23,28,0.95,56,0,"gain_frame","j","risky",729,0,1,0,399959
"1186",21,1,24,-34,0.6,84,1,"loss_frame","j","risky",1599,0,0,0,409145
"1187",21,1,25,-66,0.2,82,1,"loss_frame","j","risky",1866,0,0,0,418600
"1188",21,1,26,-15,0.8,74,1,"loss_frame","f","safe",1129,0,0,0,427316
"1189",21,1,27,-11,0.8,55,1,"loss_frame","f","safe",952,0,0,0,435848
"1190",21,1,28,33,0.4,82,1,"gain_frame","f","safe",1490,0,0,0,444913
"1191",21,1,29,40,0.6,67,1,"gain_frame","j","risky",1441,0,0,0,453944
"1192",21,1,30,-12,0.8,62,1,"loss_frame","f","safe",2137,0,0,0,463689
"1193",21,1,31,48,0.8,61,1,"gain_frame","j","risky",1409,0,0,0,472672
"1194",21,1,32,25,0.4,62,1,"gain_frame","j","risky",1761,0,0,0,482040
"1195",21,1,33,-29,0.6,72,1,"loss_frame","j","risky",1879,0,0,1,491477
"1196",21,1,34,41,0.6,68,1,"gain_frame","j","risky",1296,0,0,0,500385
"1197",21,1,35,-37,0.4,61,1,"loss_frame","j","risky",1940,0,0,0,509931
"1198",21,1,36,-67,0.2,84,1,"loss_frame","j","risky",1183,0,0,0,518701
"1199",21,1,37,28,0.4,70,1,"gain_frame","f","safe",1938,0,0,0,528226
"1200",21,1,38,-17,0.8,84,1,"loss_frame","f","safe",2103,0,0,0,537902
"1201",21,1,39,-53,0.4,88,1,"loss_frame","j","risky",1184,0,0,0,546679
"1202",21,1,40,-62,0.2,77,1,"loss_frame","j","risky",955,0,0,0,555243
"1203",21,1,41,-29,0.05,59,0,"loss_frame","f","safe",1960,0,1,0,564775
"1204",21,1,42,-33,0.6,82,1,"loss_frame","j","risky",764,0,0,0,573114
"1205",21,1,43,-30,0.95,60,0,"loss_frame","j","risky",1114,0,1,0,581824
"1206",21,1,44,25,0.4,62,1,"gain_frame","j","risky",2240,0,0,0,591621
"1207",21,1,45,30,0.4,76,1,"gain_frame","j","risky",2163,0,0,0,601382
"1208",21,1,46,14,0.2,70,1,"gain_frame","j","risky",1545,0,0,0,610515
"1209",21,1,47,-23,0.6,56,1,"loss_frame","j","risky",2244,0,0,0,620338
"1210",21,1,48,48,0.6,81,1,"gain_frame","j","risky",2250,0,0,0,630163
"1211",21,1,49,31,0.6,52,1,"gain_frame","f","safe",2209,0,0,0,639971
"1212",21,1,50,11,0.2,55,1,"gain_frame","j","risky",1419,0,0,0,648968
"1213",21,1,51,48,0.8,60,1,"gain_frame","f","safe",2238,0,0,0,658798
"1214",21,1,52,-36,0.4,60,1,"loss_frame","j","risky",1585,0,0,0,667956
"1215",21,1,53,17,0.2,85,1,"gain_frame","j","risky",2172,0,0,0,677725
"1216",21,1,54,14,0.2,72,1,"gain_frame","j","risky",1706,0,0,0,687033
"1217",21,1,55,-47,0.2,59,1,"loss_frame","j","risky",1680,0,0,0,696317
"1218",21,1,56,-32,0.05,64,0,"loss_frame","j","risky",1864,0,1,0,705751
"1219",22,0,1,24,0.4,60,1,"gain_frame","f","safe",2298,1,0,0,294390
"1220",22,0,2,-11,0.8,53,1,"loss_frame","j","risky",1612,1,0,0,303532
"1221",22,1,1,17,0.2,86,1,"gain_frame","f","safe",2725,0,0,0,380924
"1222",22,1,2,-37,0.4,61,1,"loss_frame","f","safe",1622,0,0,0,390081
"1223",22,1,3,-51,0.2,64,1,"loss_frame","j","risky",2851,0,0,0,400466
"1224",22,1,4,59,0.8,74,1,"gain_frame","j","risky",2878,0,0,0,410877
"1225",22,1,5,28,0.95,55,0,"gain_frame","f","safe",1415,0,1,0,419831
"1226",22,1,6,34,0.4,84,1,"gain_frame","f","safe",2203,0,0,0,429570
"1227",22,1,7,-36,0.4,60,1,"loss_frame","f","safe",1675,0,0,0,438775
"1228",22,1,8,69,0.8,86,1,"gain_frame","f","safe",1700,0,0,0,448007
"1229",22,1,9,12,0.2,61,1,"gain_frame","j","risky",2342,0,0,0,457874
"1230",22,1,10,53,0.8,66,1,"gain_frame","f","safe",2033,0,0,0,467432
"1231",22,1,11,30,0.95,60,0,"gain_frame","j","risky",1669,0,1,0,476637
"1232",22,1,12,-24,0.6,59,1,"loss_frame","f","safe",1725,0,0,0,485890
"1233",22,1,13,47,0.6,78,1,"gain_frame","f","safe",1299,0,0,0,494717
"1234",22,1,14,48,0.6,80,1,"gain_frame","f","safe",1258,0,0,0,503506
"1235",22,1,15,60,0.8,75,1,"gain_frame","f","safe",1588,0,0,0,512621
"1236",22,1,16,47,0.8,58,1,"gain_frame","f","safe",1733,0,0,0,521880
"1237",22,1,17,-15,0.8,77,1,"loss_frame","j","risky",2094,0,0,0,531507
"1238",22,1,18,-17,0.8,84,1,"loss_frame","j","risky",2531,0,0,0,541565
"1239",22,1,19,32,0.6,54,1,"gain_frame","f","safe",1264,0,0,0,550360
"1240",22,1,20,24,0.4,61,1,"gain_frame","f","safe",2398,0,0,0,560280
"1241",22,1,21,43,0.6,71,1,"gain_frame","f","safe",1299,0,0,0,569107
"1242",22,1,22,-28,0.6,71,1,"loss_frame","j","risky",1706,0,0,0,578344
"1243",22,1,23,44,0.6,73,1,"gain_frame","f","safe",2918,0,0,0,588793
"1244",22,1,24,-13,0.8,68,1,"loss_frame","j","risky",117,0,0,0,596435
"1245",22,1,25,-31,0.05,63,0,"loss_frame","f","safe",1592,0,1,0,605561
"1246",22,1,26,-47,0.2,59,1,"loss_frame","j","risky",2274,0,0,0,615364
"1247",22,1,27,15,0.2,73,1,"gain_frame","j","risky",2282,0,0,0,625172
"1248",22,1,28,-68,0.2,85,1,"loss_frame","f","safe",3546,0,0,0,636249
"1249",22,1,29,14,0.2,69,1,"gain_frame","j","risky",2476,0,0,0,646249
"1250",22,1,30,31,0.05,63,0,"gain_frame","f","safe",1564,0,1,0,655343
"1251",22,1,31,-31,0.95,62,0,"loss_frame","j","risky",1628,0,1,0,664500
"1252",22,1,32,29,0.4,71,1,"gain_frame","f","safe",3066,0,0,0,675103
"1253",22,1,33,30,0.05,61,0,"gain_frame","f","safe",1400,0,1,0,684027
"1254",22,1,34,39,0.6,65,1,"gain_frame","f","safe",1382,0,0,0,692945
"1255",22,1,35,69,0.8,86,1,"gain_frame","f","safe",1285,0,0,0,701765
"1256",22,1,36,-26,0.6,65,1,"loss_frame","j","risky",1402,0,0,0,710698
"1257",22,1,37,-35,0.05,70,0,"loss_frame","f","safe",1876,0,1,0,720101
"1258",22,1,38,-43,0.4,72,1,"loss_frame","f","safe",1896,0,0,0,729520
"1259",22,1,39,-34,0.6,86,1,"loss_frame","j","risky",1847,0,0,0,738890
"1260",22,1,40,23,0.4,58,1,"gain_frame","f","safe",2437,0,0,0,748858
"1261",22,1,41,-61,0.2,76,1,"loss_frame","j","risky",2743,0,0,0,759125
"1262",22,1,42,-51,0.4,84,1,"loss_frame","f","safe",3127,0,0,0,769776
"1263",22,1,43,-30,0.6,74,1,"loss_frame","j","risky",2545,0,0,0,779862
"1264",22,1,44,12,0.2,58,1,"gain_frame","j","risky",2590,0,0,0,789984
"1265",22,1,45,28,0.4,70,1,"gain_frame","f","safe",1246,0,0,0,798757
"1266",22,1,46,-31,0.95,62,0,"loss_frame","j","risky",855,0,1,0,807137
"1267",22,1,47,34,0.4,86,1,"gain_frame","f","safe",1047,0,0,0,815718
"1268",22,1,48,-66,0.2,83,1,"loss_frame","j","risky",2236,0,0,0,825483
"1269",22,1,49,-42,0.4,70,1,"loss_frame","f","safe",1321,0,0,0,834331
"1270",22,1,50,-12,0.8,56,1,"loss_frame","j","risky",1166,0,0,0,843024
"1271",22,1,51,18,0.2,89,1,"gain_frame","j","risky",3085,0,0,0,853638
"1272",22,1,52,-12,0.8,63,1,"loss_frame","j","risky",1278,0,0,1,862438
"1273",22,1,53,-16,0.8,81,1,"loss_frame","j","risky",1401,0,0,0,871372
"1274",22,1,54,-52,0.4,86,1,"loss_frame","j","risky",2027,0,0,0,880934
"1275",22,1,55,-55,0.2,69,1,"loss_frame","f","safe",1734,0,0,0,890198
"1276",22,1,56,-34,0.6,84,1,"loss_frame","j","risky",1378,0,0,0,899105
"1277",23,0,1,26,0.4,65,1,"gain_frame","f","safe",2971,1,0,0,117522
"1278",23,0,2,-47,0.2,59,1,"loss_frame","f","safe",3954,1,0,0,129040
"1279",23,1,1,-36,0.4,60,1,"loss_frame","j","risky",3154,0,0,0,195909
"1280",23,1,2,16,0.2,82,1,"gain_frame","j","risky",3070,0,0,0,206537
"1281",23,1,3,46,0.8,58,1,"gain_frame","j","risky",2533,0,0,0,216634
"1282",23,1,4,-13,0.8,65,1,"loss_frame","j","risky",2192,0,0,0,226397
"1283",23,1,5,50,0.6,83,1,"gain_frame","f","safe",2045,0,0,0,236017
"1284",23,1,6,-39,0.4,65,1,"loss_frame","f","safe",3032,0,0,0,246617
"1285",23,1,7,31,0.4,77,1,"gain_frame","f","safe",1945,0,0,0,256130
"1286",23,1,8,29,0.05,59,0,"gain_frame","f","safe",1726,0,1,0,265429
"1287",23,1,9,-27,0.05,54,0,"loss_frame","f","safe",2150,0,1,0,275147
"1288",23,1,10,-33,0.6,81,1,"loss_frame","j","risky",2921,0,0,0,285637
"1289",23,1,11,18,0.2,90,1,"gain_frame","f","safe",1531,0,0,0,294734
"1290",23,1,12,-31,0.95,61,0,"loss_frame","j","risky",1245,0,1,0,303547
"1291",23,1,13,-31,0.6,78,1,"loss_frame","j","risky",1105,0,0,0,312213
"1292",23,1,14,51,0.6,85,1,"gain_frame","f","safe",1652,0,0,0,321438
"1293",23,1,15,14,0.2,70,1,"gain_frame","no_choice","no_choice",-1,0,0,0,333006
"1294",23,1,16,-31,0.05,63,0,"loss_frame","no_choice","no_choice",-1,0,1,0,344582
"1295",23,1,17,66,0.8,83,1,"gain_frame","no_choice","no_choice",-1,0,0,0,356156
"1296",23,1,18,-23,0.6,57,1,"loss_frame","f","safe",1186,0,0,0,364910
"1297",23,1,19,35,0.4,88,1,"gain_frame","j","risky",1042,0,0,0,373526
"1298",23,1,20,-63,0.2,79,1,"loss_frame","f","safe",1219,0,0,0,382318
"1299",23,1,21,-31,0.6,78,1,"loss_frame","j","risky",1030,0,0,0,390918
"1300",23,1,22,36,0.6,60,1,"gain_frame","j","risky",1130,0,0,0,399604
"1301",23,1,23,-66,0.2,82,1,"loss_frame","f","safe",1618,0,0,0,408789
"1302",23,1,24,31,0.95,62,0,"gain_frame","j","risky",1564,0,1,0,417918
"1303",23,1,25,-57,0.2,71,1,"loss_frame","j","risky",1449,0,0,0,426927
"1304",23,1,26,-45,0.4,75,1,"loss_frame","f","safe",1539,0,0,0,436043
"1305",23,1,27,32,0.95,63,0,"gain_frame","j","risky",914,0,1,0,444518
"1306",23,1,28,-31,0.95,61,0,"loss_frame","j","risky",1186,0,1,0,453277
"1307",23,1,29,42,0.6,71,1,"gain_frame","j","risky",1691,0,0,0,462535
"1308",23,1,30,34,0.6,56,1,"gain_frame","j","risky",1074,0,0,0,471180
"1309",23,1,31,11,0.2,56,1,"gain_frame","f","safe",1284,0,0,0,480021
"1310",23,1,32,14,0.2,70,1,"gain_frame","f","safe",1080,0,0,0,488669
"1311",23,1,33,27,0.4,68,1,"gain_frame","j","risky",1349,0,0,0,497583
"1312",23,1,34,-11,0.8,59,1,"loss_frame","j","risky",1154,0,0,0,506294
"1313",23,1,35,42,0.6,70,1,"gain_frame","j","risky",1746,0,0,0,515592
"1314",23,1,36,13,0.2,63,1,"gain_frame","f","safe",946,0,0,0,524102
"1315",23,1,37,57,0.8,71,1,"gain_frame","j","risky",1707,0,0,0,533368
"1316",23,1,38,-46,0.2,57,1,"loss_frame","f","safe",770,0,0,0,541710
"1317",23,1,39,-23,0.6,58,1,"loss_frame","j","risky",751,0,0,0,550021
"1318",23,1,40,-13,0.8,66,1,"loss_frame","j","risky",943,0,0,0,558536
"1319",23,1,41,-42,0.4,70,1,"loss_frame","f","safe",922,0,0,0,567021
"1320",23,1,42,-58,0.2,73,1,"loss_frame","f","safe",1817,0,0,0,576405
"1321",23,1,43,-50,0.4,84,1,"loss_frame","j","risky",1454,0,0,0,585409
"1322",23,1,44,-31,0.6,77,1,"loss_frame","j","risky",867,0,0,0,593853
"1323",23,1,45,-49,0.4,81,1,"loss_frame","f","safe",1027,0,0,0,602446
"1324",23,1,46,46,0.8,58,1,"gain_frame","j","risky",1014,0,0,1,611023
"1325",23,1,47,66,0.8,83,1,"gain_frame","j","risky",802,0,0,0,619389
"1326",23,1,48,-14,0.8,66,1,"loss_frame","j","risky",875,0,0,0,627825
"1327",23,1,49,37,0.4,92,1,"gain_frame","j","risky",1600,0,0,0,636989
"1328",23,1,50,-50,0.2,62,1,"loss_frame","f","safe",1412,0,0,0,645970
"1329",23,1,51,26,0.4,64,1,"gain_frame","j","risky",1044,0,0,0,654591
"1330",23,1,52,24,0.4,59,1,"gain_frame","j","risky",1968,0,0,0,664121
"1331",23,1,53,-18,0.8,86,1,"loss_frame","j","risky",1114,0,0,0,672794
"1332",23,1,54,27,0.05,54,0,"gain_frame","f","safe",1634,0,1,0,682002
"1333",23,1,55,63,0.8,78,1,"gain_frame","j","risky",1077,0,0,0,690648
"1334",23,1,56,-18,0.8,87,1,"loss_frame","j","risky",673,0,0,0,698887
"1335",24,0,1,36,0.6,60,1,"gain_frame","f","safe",4714,1,0,0,144257
"1336",24,0,2,-49,0.2,61,1,"loss_frame","j","risky",4731,1,0,0,156509
"1337",24,1,1,11,0.2,57,1,"gain_frame","j","risky",3775,0,0,0,236482
"1338",24,1,2,-50,0.2,62,1,"loss_frame","f","safe",2161,0,0,0,246162
"1339",24,1,3,-30,0.95,60,0,"loss_frame","j","risky",1526,0,1,0,255207
"1340",24,1,4,-58,0.2,73,1,"loss_frame","j","risky",2696,0,0,0,265426
"1341",24,1,5,-32,0.6,79,1,"loss_frame","j","risky",957,0,0,0,273903
"1342",24,1,6,17,0.2,85,1,"gain_frame","f","safe",3091,0,0,0,284515
"1343",24,1,7,-30,0.6,74,1,"loss_frame","j","risky",821,0,0,0,292856
"1344",24,1,8,13,0.2,63,1,"gain_frame","f","safe",1508,0,0,0,301883
"1345",24,1,9,-38,0.4,63,1,"loss_frame","f","safe",1911,0,0,0,311313
"1346",24,1,10,-11,0.8,55,1,"loss_frame","j","risky",933,0,0,0,319766
"1347",24,1,11,35,0.6,58,1,"gain_frame","j","risky",946,0,0,0,328232
"1348",24,1,12,-16,0.8,82,1,"loss_frame","j","risky",763,0,0,0,336516
"1349",24,1,13,-15,0.8,72,1,"loss_frame","j","risky",1031,0,0,0,345066
"1350",24,1,14,65,0.8,81,1,"gain_frame","j","risky",829,0,0,0,353414
"1351",24,1,15,29,0.4,73,1,"gain_frame","f","safe",1251,0,0,0,362186
"1352",24,1,16,34,0.95,67,0,"gain_frame","j","risky",1284,0,1,0,370987
"1353",24,1,17,23,0.4,57,1,"gain_frame","f","safe",1189,0,0,0,379695
"1354",24,1,18,45,0.6,75,1,"gain_frame","f","safe",1703,0,0,0,388918
"1355",24,1,19,49,0.6,82,1,"gain_frame","f","safe",1562,0,0,0,397998
"1356",24,1,20,-25,0.6,63,1,"loss_frame","j","risky",1168,0,0,0,406685
"1357",24,1,21,34,0.4,85,1,"gain_frame","f","safe",987,0,0,0,415190
"1358",24,1,22,16,0.2,79,1,"gain_frame","f","safe",1030,0,0,0,423741
"1359",24,1,23,-43,0.4,72,1,"loss_frame","j","risky",2572,0,0,0,433830
"1360",24,1,24,47,0.8,59,1,"gain_frame","j","risky",1540,0,0,0,442888
"1361",24,1,25,-57,0.2,71,1,"loss_frame","f","safe",2755,0,0,0,453162
"1362",24,1,26,47,0.8,59,1,"gain_frame","f","safe",577,0,0,0,461258
"1363",24,1,27,-31,0.05,62,0,"loss_frame","f","safe",1752,0,1,0,470530
"1364",24,1,28,-52,0.2,65,1,"loss_frame","f","safe",2276,0,0,0,480324
"1365",24,1,29,-31,0.6,79,1,"loss_frame","j","risky",1262,0,0,0,489103
"1366",24,1,30,51,0.6,84,1,"gain_frame","f","safe",1765,0,0,0,498386
"1367",24,1,31,-45,0.4,75,1,"loss_frame","j","risky",2139,0,0,0,508042
"1368",24,1,32,-14,0.8,71,1,"loss_frame","j","risky",837,0,0,0,516398
"1369",24,1,33,14,0.2,72,1,"gain_frame","f","safe",820,0,0,0,524736
"1370",24,1,34,38,0.6,63,1,"gain_frame","f","safe",1414,0,0,0,533669
"1371",24,1,35,35,0.4,87,1,"gain_frame","f","safe",1323,0,0,0,542512
"1372",24,1,36,38,0.6,64,1,"gain_frame","f","safe",1104,0,0,0,551135
"1373",24,1,37,-12,0.8,60,1,"loss_frame","j","risky",1239,0,0,0,559897
"1374",24,1,38,-48,0.4,79,1,"loss_frame","j","risky",3195,0,0,0,570610
"1375",24,1,39,-27,0.6,68,1,"loss_frame","j","risky",2212,0,0,0,580339
"1376",24,1,40,28,0.4,69,1,"gain_frame","f","safe",1393,0,0,0,589249
"1377",24,1,41,30,0.05,61,0,"gain_frame","f","safe",912,0,1,0,597680
"1378",24,1,42,-66,0.2,83,1,"loss_frame","f","safe",3315,0,0,0,608515
"1379",24,1,43,68,0.8,84,1,"gain_frame","f","safe",1616,0,0,0,617648
"1380",24,1,44,12,0.2,58,1,"gain_frame","f","safe",939,0,0,0,626105
"1381",24,1,45,-36,0.4,60,1,"loss_frame","j","risky",2459,0,0,0,636083
"1382",24,1,46,-66,0.2,83,1,"loss_frame","f","safe",3166,0,0,0,646767
"1383",24,1,47,-31,0.05,62,0,"loss_frame","f","safe",1346,0,1,0,655631
"1384",24,1,48,-49,0.4,81,1,"loss_frame","j","risky",1284,0,0,0,664432
"1385",24,1,49,-29,0.95,59,0,"loss_frame","j","risky",1019,0,1,0,672967
"1386",24,1,50,-29,0.6,72,1,"loss_frame","j","risky",1397,0,0,1,681882
"1387",24,1,51,32,0.05,63,0,"gain_frame","f","safe",819,0,1,0,690220
"1388",24,1,52,23,0.4,57,1,"gain_frame","f","safe",756,0,0,0,698495
"1389",24,1,53,-17,0.8,86,1,"loss_frame","j","risky",1125,0,0,0,707139
"1390",24,1,54,58,0.8,72,1,"gain_frame","f","safe",1349,0,0,0,716006
"1391",24,1,55,58,0.8,72,1,"gain_frame","f","safe",1594,0,0,0,725119
"1392",24,1,56,28,0.95,56,0,"gain_frame","j","risky",1464,0,1,0,734103
"1393",25,0,1,14,0.2,68,1,"gain_frame","f","safe",4828,1,0,0,722501
"1394",25,0,2,-37,0.4,61,1,"loss_frame","j","risky",3003,1,0,0,733081
"1395",25,1,1,12,0.2,62,1,"gain_frame","f","safe",1240,0,0,0,783756
"1396",25,1,2,27,0.4,68,1,"gain_frame","j","risky",1060,0,0,0,792410
"1397",25,1,3,-51,0.2,64,1,"loss_frame","j","risky",1261,0,0,0,801240
"1398",25,1,4,46,0.8,58,1,"gain_frame","no_choice","no_choice",-1,0,0,0,812819
"1399",25,1,5,34,0.4,84,1,"gain_frame","j","risky",854,0,0,0,821272
"1400",25,1,6,36,0.6,60,1,"gain_frame","j","risky",72,0,0,0,828914
"1401",25,1,7,-17,0.8,85,1,"loss_frame","j","risky",1054,0,0,0,837539
"1402",25,1,8,65,0.8,81,1,"gain_frame","f","safe",48,0,0,0,845179
"1403",25,1,9,62,0.8,78,1,"gain_frame","f","safe",910,0,0,0,853661
"1404",25,1,10,-12,0.8,57,1,"loss_frame","j","risky",2085,0,0,0,863317
"1405",25,1,11,31,0.95,62,0,"gain_frame","j","risky",1421,0,1,0,872322
"1406",25,1,12,67,0.8,84,1,"gain_frame","f","safe",846,0,0,0,880749
"1407",25,1,13,-54,0.2,68,1,"loss_frame","j","risky",45,0,0,0,888387
"1408",25,1,14,11,0.2,55,1,"gain_frame","f","safe",1422,0,0,0,897379
"1409",25,1,15,-61,0.2,76,1,"loss_frame","j","risky",1527,0,0,0,906483
"1410",25,1,16,46,0.6,77,1,"gain_frame","j","risky",1651,0,0,0,915720
"1411",25,1,17,32,0.05,65,0,"gain_frame","f","safe",701,0,1,0,923975
"1412",25,1,18,-51,0.2,64,1,"loss_frame","f","safe",102,0,0,1,931656
"1413",25,1,19,28,0.4,69,1,"gain_frame","j","risky",2097,0,0,0,941330
"1414",25,1,20,-29,0.05,59,0,"loss_frame","f","safe",761,0,1,0,949676
"1415",25,1,21,-13,0.8,63,1,"loss_frame","f","safe",134,0,0,0,957390
"1416",25,1,22,32,0.4,79,1,"gain_frame","j","risky",1600,0,0,0,966570
"1417",25,1,23,-33,0.05,65,0,"loss_frame","f","safe",2466,0,1,0,976606
"1418",25,1,24,-50,0.4,84,1,"loss_frame","j","risky",1757,0,0,0,985936
"1419",25,1,25,-22,0.6,54,1,"loss_frame","j","risky",2082,0,0,0,995601
"1420",25,1,26,32,0.05,63,0,"gain_frame","f","safe",2233,0,1,0,1005421
"1421",25,1,27,-32,0.4,53,1,"loss_frame","j","risky",2127,0,0,0,1015131
"1422",25,1,28,-29,0.6,72,1,"loss_frame","j","risky",1005,0,0,0,1023737
"1423",25,1,29,-69,0.2,86,1,"loss_frame","j","risky",1561,0,0,0,1032863
"1424",25,1,30,51,0.6,84,1,"gain_frame","f","safe",1894,0,0,0,1042317
"1425",25,1,31,-18,0.8,88,1,"loss_frame","f","safe",30,0,0,0,1049911
"1426",25,1,32,-50,0.4,83,1,"loss_frame","f","safe",25,0,0,0,1057519
"1427",25,1,33,-15,0.8,74,1,"loss_frame","f","safe",1508,0,0,0,1066608
"1428",25,1,34,23,0.4,59,1,"gain_frame","j","risky",2739,0,0,0,1076935
"1429",25,1,35,54,0.6,90,1,"gain_frame","f","safe",1374,0,0,0,1085898
"1430",25,1,36,-45,0.4,75,1,"loss_frame","f","safe",56,0,0,0,1093528
"1431",25,1,37,-29,0.6,73,1,"loss_frame","f","safe",2066,0,0,0,1103171
"1432",25,1,38,25,0.4,63,1,"gain_frame","f","safe",178,0,0,0,1110935
"1433",25,1,39,-25,0.6,63,1,"loss_frame","f","safe",132,0,0,0,1118617
"1434",25,1,40,-14,0.8,66,1,"loss_frame","f","safe",1396,0,0,0,1127594
"1435",25,1,41,-57,0.2,71,1,"loss_frame","j","risky",1980,0,0,0,1137161
"1436",25,1,42,34,0.6,57,1,"gain_frame","f","safe",1091,0,0,0,1145844
"1437",25,1,43,-32,0.6,79,1,"loss_frame","f","safe",82,0,0,0,1153500
"1438",25,1,44,31,0.95,62,0,"gain_frame","f","safe",259,0,1,0,1161360
"1439",25,1,45,-43,0.4,71,1,"loss_frame","j","risky",202,0,0,0,1169146
"1440",25,1,46,-29,0.95,57,0,"loss_frame","j","risky",55,0,1,0,1176780
